Time,Accel x[m/s^2],Accel y[m/s^2],Accel z[m/s^2],Spin x[degrees/sec],Spin y[degrees/sec],Spin z[degrees/sec]
00:00:00:000,-3.947841760435743,-0.0,0,0,0,36.0
00:00:00:010,-3.9477638334192866,-0.024804858134063468,0,0,0,36.0
00:00:00:020,-3.947530055446341,-0.04960873701480052,0,0,0,36.0
00:00:00:030,-3.9471404357460598,-0.07441065742754399,0,0,0,36.0
00:00:00:040,-3.946594989699963,-0.09920964023494368,0,0,0,36.0
00:00:00:050,-3.945893738841325,-0.12400470641562103,0,0,0,36.0
00:00:00:060,-3.94503671085433,-0.1487948771028191,0,0,0,36.0
00:00:00:070,-3.944023939572975,-0.1735791736230468,0,0,0,36.0
00:00:00:080,-3.9428554649797367,-0.19835661753471506,0,0,0,36.0
00:00:00:090,-3.9415313332039914,-0.22312623066676396,0,0,0,36.0
00:00:00:100,-3.9400515965201928,-0.24788703515727942,0,0,0,36.0
00:00:00:110,-3.938416313345813,-0.27263805349209747,0,0,0,36.0
00:00:00:120,-3.9366255482390313,-0.2973783085433948,0,0,0,36.0
00:00:00:130,-3.934679371896188,-0.32210682360826404,0,0,0,36.0
00:00:00:140,-3.9325778611489923,-0.3468226224472724,0,0,0,36.0
00:00:00:150,-3.9303210989614894,-0.37152472932300207,0,0,0,36.0
00:00:00:160,-3.927909174426788,-0.39621216903857026,0,0,0,36.0
00:00:00:170,-3.925342182763538,-0.42088396697612873,0,0,0,36.0
00:00:00:180,-3.922620225312175,-0.44553914913533976,0,0,0,36.0
00:00:00:190,-3.9197434095309185,-0.47017674217182814,0,0,0,36.0
00:00:00:200,-3.916711848991529,-0.4947957734356071,0,0,0,36.0
00:00:00:210,-3.913525663374826,-0.5193952710094768,0,0,0,36.0
00:00:00:220,-3.910184978465963,-0.5439742637473943,0,0,0,36.0
00:00:00:230,-3.906689926149459,-0.5685317813128122,0,0,0,36.0
00:00:00:240,-3.903040644403995,-0.5930668542169862,0,0,0,36.0
00:00:00:250,-3.899237277296966,-0.6175785138572487,0,0,0,36.0
00:00:00:260,-3.895279974978793,-0.6420657925552481,0,0,0,36.0
00:00:00:270,-3.8911688936769955,-0.66652772359515,0,0,0,36.0
00:00:00:280,-3.8869041956900245,-0.6909633412618028,0,0,0,36.0
00:00:00:290,-3.882486049380853,-0.7153716808788612,0,0,0,36.0
00:00:00:300,-3.8779146291703324,-0.739751778846871,0,0,0,36.0
00:00:00:310,-3.8731901155303063,-0.7641026726813099,0,0,0,36.0
00:00:00:320,-3.868312694976483,-0.7884234010505847,0,0,0,36.0
00:00:00:330,-3.863282560061074,-0.812713003813983,0,0,0,36.0
00:00:00:340,-3.858099909365192,-0.8369705220595784,0,0,0,36.0
00:00:00:350,-3.852764947491015,-0.861194998142086,0,0,0,36.0
00:00:00:360,-3.8472778850537006,-0.8853854757206688,0,0,0,36.0
00:00:00:370,-3.8416389386730794,-0.9095409997966931,0,0,0,36.0
00:00:00:380,-3.835848330965099,-0.933660616751429,0,0,0,36.0
00:00:00:390,-3.8299062905330357,-0.9577433743836986,0,0,0,36.0
00:00:00:400,-3.823813051958473,-0.9817883219474669,0,0,0,36.0
00:00:00:410,-3.817568855792035,-1.0057945101893755,0,0,0,36.0
00:00:00:420,-3.811173948543895,-1.029760991386218,0,0,0,36.0
00:00:00:430,-3.804628582674042,-1.0536868193823536,0,0,0,36.0
00:00:00:440,-3.797933016582313,-1.077571049627061,0,0,0,36.0
00:00:00:450,-3.7910875145981917,-1.101412739211826,0,0,0,36.0
00:00:00:460,-3.7840923469703758,-1.125210946907568,0,0,0,36.0
00:00:00:470,-3.7769477898561052,-1.1489647332017956,0,0,0,36.0
00:00:00:480,-3.769654125310262,-1.1726731603356992,0,0,0,36.0
00:00:00:490,-3.7622116412742326,-1.1963352923411705,0,0,0,36.0
00:00:00:500,-3.7546206315645443,-1.2199501950777547,0,0,0,36.0
00:00:00:510,-3.746881395861262,-1.2435169362695264,0,0,0,36.0
00:00:00:520,-3.7389942396961593,-1.2670345855418963,0,0,0,36.0
00:00:00:530,-3.730959474440658,-1.2905022144583398,0,0,0,36.0
00:00:00:540,-3.722777417293531,-1.3139188965570499,0,0,0,36.0
00:00:00:550,-3.714448391268385,-1.3372837073875137,0,0,0,36.0
00:00:00:560,-3.7059727251809065,-1.360595724547006,0,0,0,36.0
00:00:00:570,-3.697350753635879,-1.3838540277170066,0,0,0,36.0
00:00:00:580,-3.6885828170139776,-1.4070576986995302,0,0,0,36.0
00:00:00:590,-3.679669261458325,-1.4302058214533782,0,0,0,36.0
00:00:00:600,-3.6706104388608325,-1.4532974821302997,0,0,0,36.0
00:00:00:610,-3.6614067068483065,-1.4763317691110707,0,0,0,36.0
00:00:00:620,-3.6520584287683264,-1.4993077730414819,0,0,0,36.0
00:00:00:630,-3.642565973674904,-1.5222245868682391,0,0,0,36.0
00:00:00:640,-3.632929716313913,-1.5450813058747732,0,0,0,36.0
00:00:00:650,-3.623150037108294,-1.5678770277169543,0,0,0,36.0
00:00:00:660,-3.6132273221430364,-1.5906108524587168,0,0,0,36.0
00:00:00:670,-3.6031619631499368,-1.6132818826075859,0,0,0,36.0
00:00:00:680,-3.5929543574921334,-1.6358892231501108,0,0,0,36.0
00:00:00:690,-3.5826049081484195,-1.6584319815871968,0,0,0,36.0
00:00:00:700,-3.5721140236973343,-1.68090926796934,0,0,0,36.0
00:00:00:710,-3.5614821183010323,-1.7033201949317613,0,0,0,36.0
00:00:00:720,-3.550709611688934,-1.7256638777294384,0,0,0,36.0
00:00:00:730,-3.5397969291411546,-1.7479394342720327,0,0,0,36.0
00:00:00:740,-3.5287445014717167,-1.7701459851587131,0,0,0,36.0
00:00:00:750,-3.517552765011538,-1.792282653712875,0,0,0,36.0
00:00:00:760,-3.506222161591212,-1.814348566016748,0,0,0,36.0
00:00:00:770,-3.494753138523561,-1.836342850945897,0,0,0,36.0
00:00:00:780,-3.4831461485859765,-1.858264640203613,0,0,0,36.0
00:00:00:790,-3.471401650002547,-1.8801130683551925,0,0,0,36.0
00:00:00:800,-3.4595201064259675,-1.901887272862103,0,0,0,36.0
00:00:00:810,-3.4475019869192334,-1.9235863941160332,0,0,0,36.0
00:00:00:820,-3.4353477659371245,-1.945209575472831,0,0,0,36.0
00:00:00:830,-3.4230579233074745,-1.9667559632863212,0,0,0,36.0
00:00:00:840,-3.410632944212226,-1.9882247069420071,0,0,0,36.0
00:00:00:850,-3.3980733191682786,-2.009614958890649,0,0,0,36.0
00:00:00:860,-3.385379544008124,-2.030925874681725,0,0,0,36.0
00:00:00:870,-3.372552119860271,-2.052156612996771,0,0,0,36.0
00:00:00:880,-3.359591553129459,-2.073306335682591,0,0,0,36.0
00:00:00:890,-3.346498355476672,-2.094374207784348,0,0,0,36.0
00:00:00:900,-3.3332730437989344,-2.1153593975785236,0,0,0,36.0
00:00:00:910,-3.319916140208905,-2.1362610766057584,0,0,0,36.0
00:00:00:920,-3.3064281720142668,-2.1570784197035544,0,0,0,36.0
00:00:00:930,-3.2928096716969093,-2.17781060503885,0,0,0,36.0
00:00:00:940,-3.279061176891906,-2.1984568141404677,0,0,0,36.0
00:00:00:950,-3.265183230366292,-2.2190162319314237,0,0,0,36.0
00:00:00:960,-3.251176379997632,-2.239488046761108,0,0,0,36.0
00:00:00:970,-3.2370411787523947,-2.259871450437324,0,0,0,36.0
00:00:00:980,-3.2227781846641235,-2.280165638258196,0,0,0,36.0
00:00:00:990,-3.2083879608114017,-2.3003698090439384,0,0,0,36.0
00:00:01:001,-3.1938710752956267,-2.320483165168484,0,0,0,36.0
00:00:01:011,-3.1792281012185826,-2.3405049125909727,0,0,0,36.0
00:00:01:021,-3.164459616659813,-2.3604342608870983,0,0,0,36.0
00:00:01:031,-3.1495662046538,-2.3802704232803147,0,0,0,36.0
00:00:01:041,-3.1345484531669485,-2.400012616672896,0,0,0,36.0
00:00:01:051,-3.1194069550743726,-2.419660061676851,0,0,0,36.0
00:00:01:061,-3.1041423081364905,-2.4392119826446925,0,0,0,36.0
00:00:01:071,-3.0887551149754264,-2.4586676077000584,0,0,0,36.0
00:00:01:081,-3.0732459830512187,-2.478026168768187,0,0,0,36.0
00:00:01:091,-3.05761552463784,-2.4972869016062322,0,0,0,36.0
00:00:01:101,-3.0418643567990253,-2.516449045833442,0,0,0,36.0
00:00:01:111,-3.0259931013639103,-2.5355118449611735,0,0,0,36.0
00:00:01:121,-3.0100023849024833,-2.554474546422757,0,0,0,36.0
00:00:01:131,-2.9938928387008503,-2.5733364016032096,0,0,0,36.0
00:00:01:141,-2.9776650987363102,-2.5920966658687843,0,0,0,36.0
00:00:01:151,-2.9613198056522525,-2.6107545985963707,0,0,0,36.0
00:00:01:161,-2.9448576047328587,-2.6293094632027323,0,0,0,36.0
00:00:01:171,-2.9282791458776334,-2.647760527173586,0,0,0,36.0
00:00:01:181,-2.911585083575747,-2.666107062092519,0,0,0,36.0
00:00:01:191,-2.8947760768801922,-2.6843483436697473,0,0,0,36.0
00:00:01:201,-2.877852789381773,-2.7024836517707076,0,0,0,36.0
00:00:01:211,-2.8608158891829025,-2.7205122704444893,0,0,0,36.0
00:00:01:221,-2.843666048871228,-2.738433487952097,0,0,0,36.0
00:00:01:231,-2.826403945493081,-2.7562465967945498,0,0,0,36.0
00:00:01:241,-2.809030260526744,-2.773950893740811,0,0,0,36.0
00:00:01:251,-2.7915456798555525,-2.791545679855552,0,0,0,36.0
00:00:01:261,-2.773950893740811,-2.8090302605267436,0,0,0,36.0
00:00:01:271,-2.7562465967945498,-2.8264039454930807,0,0,0,36.0
00:00:01:281,-2.738433487952097,-2.843666048871228,0,0,0,36.0
00:00:01:291,-2.7205122704444893,-2.8608158891829025,0,0,0,36.0
00:00:01:301,-2.7024836517707076,-2.877852789381773,0,0,0,36.0
00:00:01:311,-2.6843483436697473,-2.894776076880192,0,0,0,36.0
00:00:01:321,-2.6661070620925194,-2.911585083575747,0,0,0,36.0
00:00:01:331,-2.647760527173586,-2.9282791458776334,0,0,0,36.0
00:00:01:341,-2.6293094632027327,-2.9448576047328583,0,0,0,36.0
00:00:01:351,-2.610754598596371,-2.961319805652252,0,0,0,36.0
00:00:01:361,-2.5920966658687843,-2.9776650987363107,0,0,0,36.0
00:00:01:371,-2.5733364016032096,-2.9938928387008503,0,0,0,36.0
00:00:01:381,-2.554474546422757,-3.0100023849024837,0,0,0,36.0
00:00:01:391,-2.535511844961174,-3.0259931013639103,0,0,0,36.0
00:00:01:401,-2.5164490458334425,-3.0418643567990253,0,0,0,36.0
00:00:01:411,-2.4972869016062322,-3.05761552463784,0,0,0,36.0
00:00:01:421,-2.4780261687681873,-3.073245983051218,0,0,0,36.0
00:00:01:431,-2.4586676077000593,-3.088755114975426,0,0,0,36.0
00:00:01:441,-2.4392119826446925,-3.1041423081364905,0,0,0,36.0
00:00:01:451,-2.4196600616768507,-3.1194069550743726,0,0,0,36.0
00:00:01:461,-2.400012616672896,-3.1345484531669485,0,0,0,36.0
00:00:01:471,-2.380270423280315,-3.1495662046537998,0,0,0,36.0
00:00:01:481,-2.3604342608870983,-3.1644596166598125,0,0,0,36.0
00:00:01:491,-2.3405049125909727,-3.1792281012185826,0,0,0,36.0
00:00:01:501,-2.3204831651684845,-3.1938710752956263,0,0,0,36.0
00:00:01:511,-2.3003698090439393,-3.2083879608114008,0,0,0,36.0
00:00:01:521,-2.2801656382581963,-3.2227781846641235,0,0,0,36.0
00:00:01:531,-2.259871450437324,-3.2370411787523947,0,0,0,36.0
00:00:01:541,-2.239488046761108,-3.251176379997632,0,0,0,36.0
00:00:01:551,-2.2190162319314246,-3.2651832303662918,0,0,0,36.0
00:00:01:561,-2.1984568141404677,-3.279061176891906,0,0,0,36.0
00:00:01:571,-2.17781060503885,-3.2928096716969093,0,0,0,36.0
00:00:01:581,-2.157078419703555,-3.3064281720142668,0,0,0,36.0
00:00:01:591,-2.136261076605759,-3.3199161402089046,0,0,0,36.0
00:00:01:601,-2.1153593975785236,-3.3332730437989344,0,0,0,36.0
00:00:01:611,-2.0943742077843477,-3.346498355476673,0,0,0,36.0
00:00:01:621,-2.0733063356825907,-3.3595915531294596,0,0,0,36.0
00:00:01:631,-2.0521566129967717,-3.372552119860271,0,0,0,36.0
00:00:01:641,-2.030925874681725,-3.3853795440081242,0,0,0,36.0
00:00:01:651,-2.0096149588906487,-3.398073319168279,0,0,0,36.0
00:00:01:661,-1.9882247069420076,-3.410632944212226,0,0,0,36.0
00:00:01:671,-1.9667559632863216,-3.4230579233074745,0,0,0,36.0
00:00:01:681,-1.945209575472831,-3.4353477659371245,0,0,0,36.0
00:00:01:691,-1.9235863941160327,-3.447501986919234,0,0,0,36.0
00:00:01:701,-1.9018872728621026,-3.459520106425968,0,0,0,36.0
00:00:01:711,-1.8801130683551928,-3.471401650002547,0,0,0,36.0
00:00:01:721,-1.858264640203613,-3.4831461485859765,0,0,0,36.0
00:00:01:731,-1.8363428509458966,-3.4947531385235613,0,0,0,36.0
00:00:01:741,-1.8143485660167484,-3.506222161591212,0,0,0,36.0
00:00:01:751,-1.7922826537128753,-3.517552765011538,0,0,0,36.0
00:00:01:761,-1.7701459851587131,-3.5287445014717167,0,0,0,36.0
00:00:01:771,-1.7479394342720322,-3.539796929141155,0,0,0,36.0
00:00:01:781,-1.725663877729438,-3.5507096116889345,0,0,0,36.0
00:00:01:791,-1.7033201949317618,-3.5614821183010323,0,0,0,36.0
00:00:01:801,-1.68090926796934,-3.5721140236973348,0,0,0,36.0
00:00:01:811,-1.6584319815871964,-3.58260490814842,0,0,0,36.0
00:00:01:821,-1.6358892231501112,-3.592954357492134,0,0,0,36.0
00:00:01:831,-1.613281882607586,-3.6031619631499368,0,0,0,36.0
00:00:01:841,-1.5906108524587168,-3.6132273221430364,0,0,0,36.0
00:00:01:851,-1.567877027716954,-3.623150037108294,0,0,0,36.0
00:00:01:861,-1.545081305874773,-3.6329297163139134,0,0,0,36.0
00:00:01:871,-1.5222245868682396,-3.642565973674904,0,0,0,36.0
00:00:01:881,-1.4993077730414819,-3.6520584287683264,0,0,0,36.0
00:00:01:891,-1.4763317691110704,-3.661406706848307,0,0,0,36.0
00:00:01:901,-1.4532974821303,-3.670610438860833,0,0,0,36.0
00:00:01:911,-1.4302058214533786,-3.679669261458325,0,0,0,36.0
00:00:01:921,-1.4070576986995305,-3.6885828170139776,0,0,0,36.0
00:00:01:931,-1.3838540277170064,-3.6973507536358796,0,0,0,36.0
00:00:01:941,-1.3605957245470057,-3.705972725180907,0,0,0,36.0
00:00:01:951,-1.337283707387514,-3.714448391268385,0,0,0,36.0
00:00:01:961,-1.31391889655705,-3.722777417293531,0,0,0,36.0
00:00:01:971,-1.2905022144583396,-3.7309594744406582,0,0,0,36.0
00:00:01:981,-1.2670345855418967,-3.7389942396961597,0,0,0,36.0
00:00:01:991,-1.2435169362695269,-3.7468813958612626,0,0,0,36.0
00:00:02:002,-1.219950195077755,-3.7546206315645443,0,0,0,36.0
00:00:02:012,-1.1963352923411705,-3.7622116412742326,0,0,0,36.0
00:00:02:022,-1.172673160335699,-3.769654125310262,0,0,0,36.0
00:00:02:032,-1.148964733201796,-3.7769477898561052,0,0,0,36.0
00:00:02:042,-1.1252109469075682,-3.7840923469703758,0,0,0,36.0
00:00:02:052,-1.101412739211827,-3.7910875145981917,0,0,0,36.0
00:00:02:062,-1.0775710496270616,-3.797933016582313,0,0,0,36.0
00:00:02:072,-1.053686819382354,-3.804628582674042,0,0,0,36.0
00:00:02:082,-1.0297609913862182,-3.8111739485438956,0,0,0,36.0
00:00:02:092,-1.0057945101893755,-3.817568855792035,0,0,0,36.0
00:00:02:102,-0.9817883219474667,-3.823813051958473,0,0,0,36.0
00:00:02:112,-0.9577433743836983,-3.829906290533036,0,0,0,36.0
00:00:02:122,-0.9336606167514284,-3.835848330965099,0,0,0,36.0
00:00:02:132,-0.9095409997966932,-3.8416389386730794,0,0,0,36.0
00:00:02:142,-0.8853854757206696,-3.8472778850537006,0,0,0,36.0
00:00:02:152,-0.8611949981420864,-3.852764947491015,0,0,0,36.0
00:00:02:162,-0.8369705220595787,-3.858099909365192,0,0,0,36.0
00:00:02:172,-0.8127130038139831,-3.863282560061074,0,0,0,36.0
00:00:02:182,-0.7884234010505846,-3.868312694976483,0,0,0,36.0
00:00:02:192,-0.7641026726813096,-3.873190115530307,0,0,0,36.0
00:00:02:202,-0.7397517788468714,-3.877914629170333,0,0,0,36.0
00:00:02:212,-0.7153716808788614,-3.882486049380853,0,0,0,36.0
00:00:02:222,-0.6909633412618028,-3.8869041956900245,0,0,0,36.0
00:00:02:232,-0.6665277235951507,-3.8911688936769955,0,0,0,36.0
00:00:02:242,-0.6420657925552485,-3.895279974978793,0,0,0,36.0
00:00:02:252,-0.6175785138572489,-3.899237277296966,0,0,0,36.0
00:00:02:262,-0.5930668542169862,-3.9030406444039953,0,0,0,36.0
00:00:02:272,-0.568531781312812,-3.9066899261494594,0,0,0,36.0
00:00:02:282,-0.543974263747394,-3.910184978465963,0,0,0,36.0
00:00:02:292,-0.519395271009477,-3.9135256633748265,0,0,0,36.0
00:00:02:302,-0.4947957734356071,-3.916711848991529,0,0,0,36.0
00:00:02:312,-0.470176742171828,-3.919743409530919,0,0,0,36.0
00:00:02:322,-0.44553914913534026,-3.9226202253121754,0,0,0,36.0
00:00:02:332,-0.42088396697612895,-3.9253421827635386,0,0,0,36.0
00:00:02:342,-0.3962121690385703,-3.9279091744267887,0,0,0,36.0
00:00:02:352,-0.3715247293230019,-3.93032109896149,0,0,0,36.0
00:00:02:362,-0.34682262244727297,-3.9325778611489923,0,0,0,36.0
00:00:02:372,-0.32210682360826437,-3.934679371896188,0,0,0,36.0
00:00:02:382,-0.2973783085433949,-3.9366255482390313,0,0,0,36.0
00:00:02:392,-0.27263805349209735,-3.9384163133458134,0,0,0,36.0
00:00:02:402,-0.24788703515727908,-3.940051596520193,0,0,0,36.0
00:00:02:412,-0.22312623066676435,-3.9415313332039914,0,0,0,36.0
00:00:02:422,-0.19835661753471523,-3.9428554649797367,0,0,0,36.0
00:00:02:432,-0.17357917362304678,-3.944023939572975,0,0,0,36.0
00:00:02:442,-0.14879487710281888,-3.94503671085433,0,0,0,36.0
00:00:02:452,-0.12400470641562143,-3.945893738841325,0,0,0,36.0
00:00:02:462,-0.09920964023494389,-3.9465949896999626,0,0,0,36.0
00:00:02:472,-0.07441065742754399,-3.9471404357460598,0,0,0,36.0
00:00:02:482,-0.0496087370148003,-3.9475300554463404,0,0,0,36.0
00:00:02:492,-0.02480485813406304,-3.947763833419286,0,0,0,36.0
00:00:02:502,-2.4173558877289424e-16,-3.947841760435743,0,0,0,36.0
00:00:02:512,0.024804858134063433,-3.947763833419286,0,0,0,36.0
00:00:02:522,0.04960873701479982,-3.9475300554463404,0,0,0,36.0
00:00:02:532,0.07441065742754349,-3.9471404357460598,0,0,0,36.0
00:00:02:542,0.0992096402349434,-3.9465949896999626,0,0,0,36.0
00:00:02:552,0.12400470641562095,-3.945893738841325,0,0,0,36.0
00:00:02:562,0.14879487710281925,-3.94503671085433,0,0,0,36.0
00:00:02:572,0.17357917362304717,-3.944023939572975,0,0,0,36.0
00:00:02:582,0.19835661753471562,-3.9428554649797367,0,0,0,36.0
00:00:02:592,0.22312623066676385,-3.941531333203991,0,0,0,36.0
00:00:02:602,0.24788703515727953,-3.940051596520193,0,0,0,36.0
00:00:02:612,0.2726380534920969,-3.9384163133458134,0,0,0,36.0
00:00:02:622,0.2973783085433945,-3.9366255482390318,0,0,0,36.0
00:00:02:632,0.3221068236082639,-3.9346793718961877,0,0,0,36.0
00:00:02:642,0.3468226224472725,-3.9325778611489923,0,0,0,36.0
00:00:02:652,0.37152472932300235,-3.93032109896149,0,0,0,36.0
00:00:02:662,0.39621216903857076,-3.9279091744267887,0,0,0,36.0
00:00:02:672,0.4208839669761294,-3.9253421827635386,0,0,0,36.0
00:00:02:682,0.44553914913533893,-3.9226202253121754,0,0,0,36.0
00:00:02:692,0.47017674217182753,-3.9197434095309185,0,0,0,36.0
00:00:02:702,0.49479577343560666,-3.916711848991529,0,0,0,36.0
00:00:02:712,0.5193952710094766,-3.9135256633748265,0,0,0,36.0
00:00:02:722,0.5439742637473943,-3.910184978465963,0,0,0,36.0
00:00:02:732,0.5685317813128125,-3.9066899261494594,0,0,0,36.0
00:00:02:742,0.5930668542169867,-3.9030406444039953,0,0,0,36.0
00:00:02:752,0.6175785138572494,-3.899237277296966,0,0,0,36.0
00:00:02:762,0.642065792555249,-3.895279974978793,0,0,0,36.0
00:00:02:772,0.6665277235951493,-3.891168893676996,0,0,0,36.0
00:00:02:782,0.6909633412618024,-3.8869041956900245,0,0,0,36.0
00:00:02:792,0.7153716808788609,-3.882486049380853,0,0,0,36.0
00:00:02:802,0.7397517788468709,-3.877914629170333,0,0,0,36.0
00:00:02:812,0.76410267268131,-3.873190115530307,0,0,0,36.0
00:00:02:822,0.7884234010505851,-3.868312694976483,0,0,0,36.0
00:00:02:832,0.8127130038139836,-3.863282560061074,0,0,0,36.0
00:00:02:842,0.8369705220595774,-3.8580999093651926,0,0,0,36.0
00:00:02:852,0.8611949981420852,-3.852764947491015,0,0,0,36.0
00:00:02:862,0.8853854757206684,-3.847277885053701,0,0,0,36.0
00:00:02:872,0.9095409997966928,-3.84163893867308,0,0,0,36.0
00:00:02:882,0.9336606167514289,-3.835848330965099,0,0,0,36.0
00:00:02:892,0.9577433743836987,-3.829906290533036,0,0,0,36.0
00:00:02:902,0.9817883219474671,-3.823813051958473,0,0,0,36.0
00:00:02:912,1.005794510189376,-3.817568855792035,0,0,0,36.0
00:00:02:922,1.0297609913862187,-3.8111739485438956,0,0,0,36.0
00:00:02:932,1.0536868193823528,-3.8046285826740425,0,0,0,36.0
00:00:02:942,1.0775710496270603,-3.7979330165823133,0,0,0,36.0
00:00:02:952,1.1014127392118256,-3.791087514598192,0,0,0,36.0
00:00:02:962,1.1252109469075677,-3.7840923469703758,0,0,0,36.0
00:00:02:972,1.1489647332017956,-3.7769477898561057,0,0,0,36.0
00:00:02:982,1.1726731603356995,-3.769654125310262,0,0,0,36.0
00:00:02:992,1.196335292341171,-3.7622116412742326,0,0,0,36.0
00:00:03:003,1.2199501950777545,-3.7546206315645447,0,0,0,36.0
00:00:03:013,1.2435169362695255,-3.746881395861263,0,0,0,36.0
00:00:03:023,1.2670345855418956,-3.73899423969616,0,0,0,36.0
00:00:03:033,1.2905022144583393,-3.7309594744406587,0,0,0,36.0
00:00:03:043,1.3139188965570496,-3.7227774172935315,0,0,0,36.0
00:00:03:053,1.3372837073875137,-3.7144483912683857,0,0,0,36.0
00:00:03:063,1.3605957245470062,-3.705972725180907,0,0,0,36.0
00:00:03:073,1.3838540277170068,-3.6973507536358796,0,0,0,36.0
00:00:03:083,1.407057698699531,-3.6885828170139776,0,0,0,36.0
00:00:03:093,1.4302058214533782,-3.6796692614583253,0,0,0,36.0
00:00:03:103,1.4532974821302989,-3.6706104388608334,0,0,0,36.0
00:00:03:113,1.47633176911107,-3.6614067068483074,0,0,0,36.0
00:00:03:123,1.4993077730414814,-3.652058428768327,0,0,0,36.0
00:00:03:133,1.5222245868682391,-3.6425659736749045,0,0,0,36.0
00:00:03:143,1.5450813058747732,-3.6329297163139134,0,0,0,36.0
00:00:03:153,1.5678770277169545,-3.623150037108294,0,0,0,36.0
00:00:03:163,1.5906108524587164,-3.613227322143037,0,0,0,36.0
00:00:03:173,1.6132818826075859,-3.603161963149937,0,0,0,36.0
00:00:03:183,1.6358892231501108,-3.5929543574921343,0,0,0,36.0
00:00:03:193,1.6584319815871968,-3.58260490814842,0,0,0,36.0
00:00:03:203,1.6809092679693405,-3.5721140236973348,0,0,0,36.0
00:00:03:213,1.7033201949317622,-3.5614821183010323,0,0,0,36.0
00:00:03:223,1.7256638777294393,-3.550709611688934,0,0,0,36.0
00:00:03:233,1.7479394342720336,-3.5397969291411546,0,0,0,36.0
00:00:03:243,1.7701459851587142,-3.5287445014717163,0,0,0,36.0
00:00:03:253,1.7922826537128749,-3.5175527650115384,0,0,0,36.0
00:00:03:263,1.814348566016748,-3.5062221615912126,0,0,0,36.0
00:00:03:273,1.836342850945897,-3.4947531385235613,0,0,0,36.0
00:00:03:283,1.8582646402036134,-3.4831461485859765,0,0,0,36.0
00:00:03:293,1.880113068355193,-3.471401650002547,0,0,0,36.0
00:00:03:303,1.9018872728621032,-3.4595201064259675,0,0,0,36.0
00:00:03:313,1.9235863941160336,-3.4475019869192334,0,0,0,36.0
00:00:03:323,1.9452095754728302,-3.435347765937125,0,0,0,36.0
00:00:03:333,1.966755963286321,-3.423057923307475,0,0,0,36.0
00:00:03:343,1.9882247069420067,-3.4106329442122263,0,0,0,36.0
00:00:03:353,2.0096149588906487,-3.398073319168279,0,0,0,36.0
00:00:03:363,2.030925874681725,-3.3853795440081242,0,0,0,36.0
00:00:03:373,2.0521566129967717,-3.372552119860271,0,0,0,36.0
00:00:03:383,2.0733063356825916,-3.359591553129459,0,0,0,36.0
00:00:03:393,2.0943742077843486,-3.346498355476672,0,0,0,36.0
00:00:03:403,2.1153593975785245,-3.333273043798934,0,0,0,36.0
00:00:03:413,2.136261076605758,-3.319916140208905,0,0,0,36.0
00:00:03:423,2.157078419703554,-3.3064281720142668,0,0,0,36.0
00:00:03:433,2.1778106050388497,-3.2928096716969093,0,0,0,36.0
00:00:03:443,2.1984568141404677,-3.279061176891906,0,0,0,36.0
00:00:03:453,2.219016231931424,-3.2651832303662918,0,0,0,36.0
00:00:03:463,2.2394880467611085,-3.2511763799976316,0,0,0,36.0
00:00:03:473,2.2598714504373243,-3.2370411787523943,0,0,0,36.0
00:00:03:483,2.280165638258195,-3.222778184664124,0,0,0,36.0
00:00:03:493,2.300369809043938,-3.2083879608114017,0,0,0,36.0
00:00:03:503,2.3204831651684836,-3.1938710752956267,0,0,0,36.0
00:00:03:513,2.3405049125909723,-3.1792281012185826,0,0,0,36.0
00:00:03:523,2.3604342608870983,-3.1644596166598125,0,0,0,36.0
00:00:03:533,2.380270423280315,-3.1495662046537998,0,0,0,36.0
00:00:03:543,2.4000126166728966,-3.134548453166948,0,0,0,36.0
00:00:03:553,2.419660061676851,-3.1194069550743717,0,0,0,36.0
00:00:03:563,2.439211982644693,-3.10414230813649,0,0,0,36.0
00:00:03:573,2.458667607700058,-3.0887551149754264,0,0,0,36.0
00:00:03:583,2.4780261687681864,-3.0732459830512187,0,0,0,36.0
00:00:03:593,2.497286901606232,-3.05761552463784,0,0,0,36.0
00:00:03:603,2.516449045833442,-3.0418643567990253,0,0,0,36.0
00:00:03:613,2.5355118449611735,-3.0259931013639103,0,0,0,36.0
00:00:03:623,2.5544745464227576,-3.010002384902483,0,0,0,36.0
00:00:03:633,2.57333640160321,-2.99389283870085,0,0,0,36.0
00:00:03:643,2.5920966658687834,-2.977665098736311,0,0,0,36.0
00:00:03:653,2.6107545985963703,-2.9613198056522525,0,0,0,36.0
00:00:03:663,2.629309463202732,-2.9448576047328587,0,0,0,36.0
00:00:03:673,2.6477605271735856,-2.9282791458776334,0,0,0,36.0
00:00:03:683,2.666107062092519,-2.911585083575747,0,0,0,36.0
00:00:03:693,2.6843483436697473,-2.894776076880192,0,0,0,36.0
00:00:03:703,2.7024836517707076,-2.8778527893817727,0,0,0,36.0
00:00:03:713,2.7205122704444897,-2.8608158891829016,0,0,0,36.0
00:00:03:723,2.738433487952097,-2.8436660488712278,0,0,0,36.0
00:00:03:733,2.756246596794549,-2.826403945493081,0,0,0,36.0
00:00:03:743,2.77395089374081,-2.809030260526744,0,0,0,36.0
00:00:03:753,2.7915456798555516,-2.7915456798555525,0,0,0,36.0
00:00:03:763,2.8090302605267436,-2.773950893740811,0,0,0,36.0
00:00:03:773,2.8264039454930807,-2.7562465967945498,0,0,0,36.0
00:00:03:783,2.843666048871228,-2.7384334879520966,0,0,0,36.0
00:00:03:793,2.8608158891829025,-2.720512270444489,0,0,0,36.0
00:00:03:803,2.877852789381772,-2.702483651770708,0,0,0,36.0
00:00:03:813,2.8947760768801913,-2.6843483436697477,0,0,0,36.0
00:00:03:823,2.911585083575746,-2.66610706209252,0,0,0,36.0
00:00:03:833,2.928279145877633,-2.6477605271735865,0,0,0,36.0
00:00:03:843,2.9448576047328583,-2.6293094632027327,0,0,0,36.0
00:00:03:853,2.961319805652252,-2.6107545985963707,0,0,0,36.0
00:00:03:863,2.9776650987363102,-2.5920966658687843,0,0,0,36.0
00:00:03:873,2.9938928387008503,-2.5733364016032096,0,0,0,36.0
00:00:03:883,3.0100023849024833,-2.5544745464227567,0,0,0,36.0
00:00:03:893,3.0259931013639094,-2.5355118449611744,0,0,0,36.0
00:00:03:903,3.041864356799025,-2.5164490458334425,0,0,0,36.0
00:00:03:913,3.0576155246378396,-2.4972869016062327,0,0,0,36.0
00:00:03:923,3.073245983051218,-2.4780261687681873,0,0,0,36.0
00:00:03:933,3.088755114975426,-2.458667607700059,0,0,0,36.0
00:00:03:943,3.1041423081364905,-2.439211982644692,0,0,0,36.0
00:00:03:953,3.1194069550743726,-2.4196600616768507,0,0,0,36.0
00:00:03:963,3.134548453166947,-2.400012616672897,0,0,0,36.0
00:00:03:973,3.149566204653799,-2.3802704232803156,0,0,0,36.0
00:00:03:983,3.164459616659812,-2.3604342608870987,0,0,0,36.0
00:00:03:993,3.179228101218582,-2.3405049125909727,0,0,0,36.0
00:00:04:004,3.1938710752956263,-2.3204831651684845,0,0,0,36.0
00:00:04:014,3.2083879608114008,-2.300369809043939,0,0,0,36.0
00:00:04:024,3.2227781846641235,-2.280165638258196,0,0,0,36.0
00:00:04:034,3.2370411787523947,-2.259871450437324,0,0,0,36.0
00:00:04:044,3.251176379997632,-2.2394880467611076,0,0,0,36.0
00:00:04:054,3.2651832303662913,-2.2190162319314246,0,0,0,36.0
00:00:04:064,3.2790611768919056,-2.198456814140468,0,0,0,36.0
00:00:04:074,3.292809671696909,-2.1778106050388506,0,0,0,36.0
00:00:04:084,3.3064281720142663,-2.157078419703555,0,0,0,36.0
00:00:04:094,3.3199161402089046,-2.136261076605759,0,0,0,36.0
00:00:04:104,3.3332730437989335,-2.115359397578525,0,0,0,36.0
00:00:04:114,3.346498355476673,-2.0943742077843477,0,0,0,36.0
00:00:04:124,3.3595915531294587,-2.0733063356825925,0,0,0,36.0
00:00:04:134,3.3725521198602713,-2.052156612996771,0,0,0,36.0
00:00:04:144,3.385379544008124,-2.0309258746817256,0,0,0,36.0
00:00:04:154,3.3980733191682795,-2.009614958890648,0,0,0,36.0
00:00:04:164,3.410632944212226,-1.9882247069420076,0,0,0,36.0
00:00:04:174,3.4230579233074745,-1.9667559632863216,0,0,0,36.0
00:00:04:184,3.4353477659371245,-1.945209575472831,0,0,0,36.0
00:00:04:194,3.447501986919233,-1.9235863941160343,0,0,0,36.0
00:00:04:204,3.459520106425968,-1.9018872728621026,0,0,0,36.0
00:00:04:214,3.4714016500025466,-1.8801130683551937,0,0,0,36.0
00:00:04:224,3.483146148585977,-1.8582646402036123,0,0,0,36.0
00:00:04:234,3.494753138523561,-1.8363428509458974,0,0,0,36.0
00:00:04:244,3.506222161591213,-1.814348566016747,0,0,0,36.0
00:00:04:254,3.517552765011538,-1.7922826537128755,0,0,0,36.0
00:00:04:264,3.5287445014717167,-1.7701459851587134,0,0,0,36.0
00:00:04:274,3.539796929141155,-1.7479394342720325,0,0,0,36.0
00:00:04:284,3.5507096116889336,-1.7256638777294397,0,0,0,36.0
00:00:04:294,3.561482118301033,-1.7033201949317611,0,0,0,36.0
00:00:04:304,3.572114023697334,-1.680909267969341,0,0,0,36.0
00:00:04:314,3.5826049081484204,-1.6584319815871957,0,0,0,36.0
00:00:04:324,3.5929543574921334,-1.6358892231501114,0,0,0,36.0
00:00:04:334,3.6031619631499368,-1.6132818826075863,0,0,0,36.0
00:00:04:344,3.6132273221430364,-1.590610852458717,0,0,0,36.0
00:00:04:354,3.623150037108294,-1.5678770277169543,0,0,0,36.0
00:00:04:364,3.6329297163139134,-1.545081305874773,0,0,0,36.0
00:00:04:374,3.642565973674904,-1.5222245868682405,0,0,0,36.0
00:00:04:384,3.652058428768327,-1.4993077730414812,0,0,0,36.0
00:00:04:394,3.6614067068483065,-1.4763317691110713,0,0,0,36.0
00:00:04:404,3.6706104388608325,-1.4532974821303002,0,0,0,36.0
00:00:04:414,3.679669261458325,-1.4302058214533788,0,0,0,36.0
00:00:04:424,3.6885828170139776,-1.4070576986995307,0,0,0,36.0
00:00:04:434,3.697350753635879,-1.3838540277170066,0,0,0,36.0
00:00:04:444,3.7059727251809065,-1.360595724547006,0,0,0,36.0
00:00:04:454,3.7144483912683857,-1.3372837073875135,0,0,0,36.0
00:00:04:464,3.7227774172935306,-1.313918896557051,0,0,0,36.0
00:00:04:474,3.7309594744406582,-1.2905022144583391,0,0,0,36.0
00:00:04:484,3.7389942396961593,-1.267034585541897,0,0,0,36.0
00:00:04:494,3.746881395861262,-1.243516936269527,0,0,0,36.0
00:00:04:504,3.7546206315645443,-1.2199501950777552,0,0,0,36.0
00:00:04:514,3.7622116412742326,-1.1963352923411708,0,0,0,36.0
00:00:04:524,3.769654125310262,-1.1726731603356992,0,0,0,36.0
00:00:04:534,3.7769477898561057,-1.1489647332017954,0,0,0,36.0
00:00:04:544,3.7840923469703758,-1.1252109469075675,0,0,0,36.0
00:00:04:554,3.7910875145981917,-1.1014127392118271,0,0,0,36.0
00:00:04:564,3.7979330165823133,-1.07757104962706,0,0,0,36.0
00:00:04:574,3.804628582674042,-1.0536868193823543,0,0,0,36.0
00:00:04:584,3.811173948543895,-1.0297609913862185,0,0,0,36.0
00:00:04:594,3.817568855792035,-1.0057945101893757,0,0,0,36.0
00:00:04:604,3.823813051958473,-0.9817883219474669,0,0,0,36.0
00:00:04:614,3.829906290533036,-0.9577433743836985,0,0,0,36.0
00:00:04:624,3.835848330965099,-0.9336606167514286,0,0,0,36.0
00:00:04:634,3.84163893867308,-0.9095409997966926,0,0,0,36.0
00:00:04:644,3.8472778850537006,-0.8853854757206698,0,0,0,36.0
00:00:04:654,3.852764947491015,-0.8611949981420867,0,0,0,36.0
00:00:04:664,3.858099909365192,-0.8369705220595789,0,0,0,36.0
00:00:04:674,3.863282560061074,-0.8127130038139834,0,0,0,36.0
00:00:04:684,3.868312694976483,-0.7884234010505848,0,0,0,36.0
00:00:04:694,3.873190115530307,-0.7641026726813098,0,0,0,36.0
00:00:04:704,3.8779146291703324,-0.7397517788468707,0,0,0,36.0
00:00:04:714,3.882486049380853,-0.7153716808788607,0,0,0,36.0
00:00:04:724,3.8869041956900237,-0.6909633412618037,0,0,0,36.0
00:00:04:734,3.8911688936769955,-0.6665277235951509,0,0,0,36.0
00:00:04:744,3.895279974978793,-0.6420657925552488,0,0,0,36.0
00:00:04:754,3.899237277296966,-0.6175785138572492,0,0,0,36.0
00:00:04:764,3.903040644403995,-0.5930668542169865,0,0,0,36.0
00:00:04:774,3.906689926149459,-0.5685317813128122,0,0,0,36.0
00:00:04:784,3.910184978465963,-0.5439742637473941,0,0,0,36.0
00:00:04:794,3.913525663374826,-0.5193952710094764,0,0,0,36.0
00:00:04:804,3.916711848991529,-0.49479577343560643,0,0,0,36.0
00:00:04:814,3.9197434095309185,-0.4701767421718291,0,0,0,36.0
00:00:04:824,3.922620225312175,-0.44553914913534054,0,0,0,36.0
00:00:04:834,3.925342182763538,-0.42088396697612923,0,0,0,36.0
00:00:04:844,3.927909174426788,-0.3962121690385706,0,0,0,36.0
00:00:04:854,3.9303210989614894,-0.3715247293230022,0,0,0,36.0
00:00:04:864,3.9325778611489923,-0.34682262244727236,0,0,0,36.0
00:00:04:874,3.9346793718961877,-0.32210682360826376,0,0,0,36.0
00:00:04:884,3.9366255482390318,-0.2973783085433943,0,0,0,36.0
00:00:04:894,3.938416313345813,-0.27263805349209674,0,0,0,36.0
00:00:04:904,3.9400515965201928,-0.24788703515728025,0,0,0,36.0
00:00:04:914,3.9415313332039914,-0.2231262306667646,0,0,0,36.0
00:00:04:924,3.9428554649797367,-0.19835661753471548,0,0,0,36.0
00:00:04:934,3.944023939572975,-0.17357917362304703,0,0,0,36.0
00:00:04:944,3.94503671085433,-0.1487948771028191,0,0,0,36.0
00:00:04:954,3.945893738841325,-0.12400470641562081,0,0,0,36.0
00:00:04:964,3.9465949896999626,-0.09920964023494325,0,0,0,36.0
00:00:04:974,3.9471404357460598,-0.0744106574275451,0,0,0,36.0
00:00:04:984,3.9475300554463404,-0.04960873701479967,0,0,0,36.0
00:00:04:994,3.9477638334192866,-0.024804858134064158,0,0,0,36.0
00:00:05:005,3.947841760435743,-4.834711775457885e-16,0,0,0,36.0
00:00:05:015,3.947763833419286,0.024804858134063194,0,0,0,36.0
00:00:05:025,3.9475300554463404,0.04960873701480045,0,0,0,36.0
00:00:05:035,3.9471404357460598,0.07441065742754414,0,0,0,36.0
00:00:05:045,3.946594989699963,0.09920964023494229,0,0,0,36.0
00:00:05:055,3.945893738841325,0.12400470641562157,0,0,0,36.0
00:00:05:065,3.9450367108543296,0.14879487710281813,0,0,0,36.0
00:00:05:075,3.944023939572975,0.1735791736230478,0,0,0,36.0
00:00:05:085,3.9428554649797367,0.19835661753471448,0,0,0,36.0
00:00:05:095,3.941531333203991,0.2231262306667636,0,0,0,36.0
00:00:05:105,3.940051596520193,0.24788703515727925,0,0,0,36.0
00:00:05:115,3.938416313345813,0.2726380534920975,0,0,0,36.0
00:00:05:125,3.9366255482390313,0.2973783085433951,0,0,0,36.0
00:00:05:135,3.934679371896188,0.32210682360826276,0,0,0,36.0
00:00:05:145,3.9325778611489923,0.3468226224472731,0,0,0,36.0
00:00:05:155,3.93032109896149,0.37152472932300123,0,0,0,36.0
00:00:05:165,3.927909174426788,0.39621216903857137,0,0,0,36.0
00:00:05:175,3.9253421827635386,0.42088396697612834,0,0,0,36.0
00:00:05:185,3.922620225312175,0.44553914913533954,0,0,0,36.0
00:00:05:195,3.9197434095309185,0.47017674217182814,0,0,0,36.0
00:00:05:205,3.916711848991529,0.4947957734356073,0,0,0,36.0
00:00:05:215,3.913525663374826,0.5193952710094772,0,0,0,36.0
00:00:05:225,3.9101849784659635,0.5439742637473933,0,0,0,36.0
00:00:05:235,3.906689926149459,0.5685317813128131,0,0,0,36.0
00:00:05:245,3.9030406444039953,0.5930668542169856,0,0,0,36.0
00:00:05:255,3.8992372772969657,0.61757851385725,0,0,0,36.0
00:00:05:265,3.895279974978793,0.6420657925552479,0,0,0,36.0
00:00:05:275,3.8911688936769955,0.66652772359515,0,0,0,36.0
00:00:05:285,3.8869041956900245,0.690963341261803,0,0,0,36.0
00:00:05:295,3.882486049380853,0.7153716808788598,0,0,0,36.0
00:00:05:305,3.8779146291703324,0.7397517788468716,0,0,0,36.0
00:00:05:315,3.873190115530307,0.7641026726813089,0,0,0,36.0
00:00:05:325,3.868312694976483,0.7884234010505857,0,0,0,36.0
00:00:05:335,3.863282560061074,0.8127130038139825,0,0,0,36.0
00:00:05:345,3.858099909365192,0.8369705220595798,0,0,0,36.0
00:00:05:355,3.852764947491015,0.8611949981420859,0,0,0,36.0
00:00:05:365,3.847277885053701,0.8853854757206673,0,0,0,36.0
00:00:05:375,3.8416389386730794,0.9095409997966933,0,0,0,36.0
00:00:05:385,3.8358483309650993,0.9336606167514278,0,0,0,36.0
00:00:05:395,3.8299062905330357,0.9577433743836992,0,0,0,36.0
00:00:05:405,3.823813051958473,0.981788321947466,0,0,0,36.0
00:00:05:415,3.8175688557920346,1.0057945101893766,0,0,0,36.0
00:00:05:425,3.8111739485438956,1.0297609913862176,0,0,0,36.0
00:00:05:435,3.804628582674042,1.0536868193823552,0,0,0,36.0
00:00:05:445,3.797933016582313,1.077571049627061,0,0,0,36.0
00:00:05:455,3.791087514598192,1.1014127392118247,0,0,0,36.0
00:00:05:465,3.7840923469703758,1.1252109469075684,0,0,0,36.0
00:00:05:475,3.776947789856106,1.1489647332017945,0,0,0,36.0
00:00:05:485,3.7696541253102613,1.1726731603357,0,0,0,36.0
00:00:05:495,3.762211641274233,1.1963352923411699,0,0,0,36.0
00:00:05:505,3.754620631564544,1.219950195077756,0,0,0,36.0
00:00:05:515,3.7468813958612626,1.2435169362695262,0,0,0,36.0
00:00:05:525,3.7389942396961593,1.2670345855418979,0,0,0,36.0
00:00:05:535,3.7309594744406582,1.2905022144583398,0,0,0,36.0
00:00:05:545,3.7227774172935315,1.3139188965570485,0,0,0,36.0
00:00:05:555,3.714448391268385,1.3372837073875141,0,0,0,36.0
00:00:05:565,3.705972725180907,1.3605957245470053,0,0,0,36.0
00:00:05:575,3.697350753635879,1.3838540277170075,0,0,0,36.0
00:00:05:585,3.6885828170139776,1.4070576986995298,0,0,0,36.0
00:00:05:595,3.679669261458325,1.4302058214533797,0,0,0,36.0
00:00:05:605,3.670610438860833,1.4532974821302995,0,0,0,36.0
00:00:05:615,3.6614067068483074,1.476331769111069,0,0,0,36.0
00:00:05:625,3.6520584287683264,1.499307773041482,0,0,0,36.0
00:00:05:635,3.642565973674905,1.522224586868238,0,0,0,36.0
00:00:05:645,3.632929716313913,1.5450813058747739,0,0,0,36.0
00:00:05:655,3.6231500371082945,1.5678770277169536,0,0,0,36.0
00:00:05:665,3.613227322143036,1.5906108524587177,0,0,0,36.0
00:00:05:675,3.603161963149937,1.6132818826075856,0,0,0,36.0
00:00:05:685,3.5929543574921348,1.635889223150109,0,0,0,36.0
00:00:05:695,3.58260490814842,1.6584319815871966,0,0,0,36.0
00:00:05:705,3.572114023697335,1.6809092679693385,0,0,0,36.0
00:00:05:715,3.5614821183010323,1.703320194931762,0,0,0,36.0
00:00:05:725,3.550709611688935,1.7256638777294375,0,0,0,36.0
00:00:05:735,3.5397969291411546,1.7479394342720334,0,0,0,36.0
00:00:05:745,3.528744501471717,1.7701459851587125,0,0,0,36.0
00:00:05:755,3.5175527650115375,1.7922826537128764,0,0,0,36.0
00:00:05:765,3.5062221615912126,1.8143485660167478,0,0,0,36.0
00:00:05:775,3.4947531385235617,1.8363428509458952,0,0,0,36.0
00:00:05:785,3.4831461485859765,1.8582646402036131,0,0,0,36.0
00:00:05:795,3.471401650002548,1.8801130683551914,0,0,0,36.0
00:00:05:805,3.4595201064259675,1.9018872728621032,0,0,0,36.0
00:00:05:815,3.4475019869192343,1.923586394116032,0,0,0,36.0
00:00:05:825,3.435347765937124,1.9452095754728318,0,0,0,36.0
00:00:05:835,3.423057923307475,1.966755963286321,0,0,0,36.0
00:00:05:845,3.410632944212225,1.9882247069420085,0,0,0,36.0
00:00:05:855,3.398073319168279,2.0096149588906487,0,0,0,36.0
00:00:05:865,3.385379544008125,2.0309258746817234,0,0,0,36.0
00:00:05:875,3.372552119860271,2.0521566129967717,0,0,0,36.0
00:00:05:885,3.35959155312946,2.0733063356825903,0,0,0,36.0
00:00:05:895,3.346498355476672,2.0943742077843486,0,0,0,36.0
00:00:05:905,3.3332730437989353,2.1153593975785228,0,0,0,36.0
00:00:05:915,3.319916140208904,2.1362610766057597,0,0,0,36.0
00:00:05:925,3.3064281720142668,2.157078419703554,0,0,0,36.0
00:00:05:935,3.2928096716969106,2.1778106050388484,0,0,0,36.0
00:00:05:945,3.279061176891906,2.1984568141404677,0,0,0,36.0
00:00:05:955,3.265183230366293,2.2190162319314224,0,0,0,36.0
00:00:05:965,3.2511763799976316,2.2394880467611085,0,0,0,36.0
00:00:05:975,3.2370411787523956,2.259871450437323,0,0,0,36.0
00:00:05:985,3.222778184664123,2.2801656382581963,0,0,0,36.0
00:00:05:995,3.2083879608114017,2.300369809043938,0,0,0,36.0
00:00:06:006,3.193871075295627,2.3204831651684836,0,0,0,36.0
00:00:06:016,3.1792281012185826,2.3405049125909723,0,0,0,36.0
00:00:06:026,3.164459616659814,2.3604342608870965,0,0,0,36.0
00:00:06:036,3.1495662046537998,2.380270423280315,0,0,0,36.0
00:00:06:046,3.1345484531669494,2.4000126166728952,0,0,0,36.0
00:00:06:056,3.119406955074372,2.419660061676851,0,0,0,36.0
00:00:06:066,3.1041423081364914,2.4392119826446916,0,0,0,36.0
00:00:06:076,3.0887551149754255,2.4586676077000598,0,0,0,36.0
00:00:06:086,3.073245983051219,2.4780261687681864,0,0,0,36.0
00:00:06:096,3.0576155246378405,2.497286901606232,0,0,0,36.0
00:00:06:106,3.0418643567990253,2.516449045833442,0,0,0,36.0
00:00:06:116,3.0259931013639116,2.535511844961172,0,0,0,36.0
00:00:06:126,3.0100023849024833,2.5544745464227576,0,0,0,36.0
00:00:06:136,2.993892838700851,2.5733364016032088,0,0,0,36.0
00:00:06:146,2.9776650987363102,2.5920966658687847,0,0,0,36.0
00:00:06:156,2.961319805652253,2.6107545985963703,0,0,0,36.0
00:00:06:166,2.944857604732858,2.629309463202733,0,0,0,36.0
00:00:06:176,2.928279145877634,2.6477605271735856,0,0,0,36.0
00:00:06:186,2.911585083575747,2.666107062092519,0,0,0,36.0
00:00:06:196,2.8947760768801922,2.6843483436697473,0,0,0,36.0
00:00:06:206,2.877852789381774,2.7024836517707063,0,0,0,36.0
00:00:06:216,2.860815889182902,2.7205122704444897,0,0,0,36.0
00:00:06:226,2.843666048871229,2.738433487952096,0,0,0,36.0
00:00:06:236,2.8264039454930803,2.75624659679455,0,0,0,36.0
00:00:06:246,2.8090302605267445,2.77395089374081,0,0,0,36.0
00:00:06:256,2.7915456798555525,2.7915456798555516,0,0,0,36.0
00:00:06:266,2.773950893740811,2.8090302605267436,0,0,0,36.0
00:00:06:276,2.7562465967945498,2.8264039454930807,0,0,0,36.0
00:00:06:286,2.738433487952097,2.843666048871228,0,0,0,36.0
00:00:06:296,2.7205122704444906,2.860815889182901,0,0,0,36.0
00:00:06:306,2.702483651770707,2.877852789381773,0,0,0,36.0
00:00:06:316,2.684348343669748,2.8947760768801913,0,0,0,36.0
00:00:06:326,2.66610706209252,2.911585083575746,0,0,0,36.0
00:00:06:336,2.647760527173587,2.928279145877633,0,0,0,36.0
00:00:06:346,2.6293094632027327,2.9448576047328583,0,0,0,36.0
00:00:06:356,2.610754598596371,2.961319805652252,0,0,0,36.0
00:00:06:366,2.5920966658687843,2.9776650987363107,0,0,0,36.0
00:00:06:376,2.5733364016032083,2.9938928387008517,0,0,0,36.0
00:00:06:386,2.554474546422757,3.0100023849024837,0,0,0,36.0
00:00:06:396,2.5355118449611718,3.025993101363912,0,0,0,36.0
00:00:06:406,2.5164490458334416,3.041864356799026,0,0,0,36.0
00:00:06:416,2.4972869016062327,3.0576155246378396,0,0,0,36.0
00:00:06:426,2.4780261687681864,3.0732459830512195,0,0,0,36.0
00:00:06:436,2.4586676077000593,3.088755114975426,0,0,0,36.0
00:00:06:446,2.439211982644691,3.1041423081364914,0,0,0,36.0
00:00:06:456,2.4196600616768507,3.1194069550743726,0,0,0,36.0
00:00:06:466,2.400012616672895,3.13454845316695,0,0,0,36.0
00:00:06:476,2.3802704232803147,3.1495662046538,0,0,0,36.0
00:00:06:486,2.360434260887096,3.1644596166598142,0,0,0,36.0
00:00:06:496,2.340504912590972,3.179228101218583,0,0,0,36.0
00:00:06:506,2.320483165168485,3.1938710752956263,0,0,0,36.0
00:00:06:516,2.300369809043938,3.208387960811402,0,0,0,36.0
00:00:06:526,2.2801656382581963,3.2227781846641235,0,0,0,36.0
00:00:06:536,2.2598714504373225,3.237041178752396,0,0,0,36.0
00:00:06:546,2.239488046761108,3.251176379997632,0,0,0,36.0
00:00:06:556,2.2190162319314224,3.265183230366293,0,0,0,36.0
00:00:06:566,2.1984568141404672,3.2790611768919065,0,0,0,36.0
00:00:06:576,2.177810605038851,3.292809671696909,0,0,0,36.0
00:00:06:586,2.1570784197035535,3.306428172014267,0,0,0,36.0
00:00:06:596,2.1362610766057593,3.3199161402089046,0,0,0,36.0
00:00:06:606,2.1153593975785223,3.3332730437989353,0,0,0,36.0
00:00:06:616,2.094374207784348,3.346498355476672,0,0,0,36.0
00:00:06:626,2.07330633568259,3.35959155312946,0,0,0,36.0
00:00:06:636,2.052156612996771,3.372552119860271,0,0,0,36.0
00:00:06:646,2.030925874681726,3.3853795440081234,0,0,0,36.0
00:00:06:656,2.0096149588906482,3.398073319168279,0,0,0,36.0
00:00:06:666,1.988224706942008,3.410632944212225,0,0,0,36.0
00:00:06:676,1.9667559632863205,3.423057923307475,0,0,0,36.0
00:00:06:686,1.9452095754728314,3.435347765937124,0,0,0,36.0
00:00:06:696,1.9235863941160316,3.4475019869192343,0,0,0,36.0
00:00:06:706,1.901887272862103,3.4595201064259675,0,0,0,36.0
00:00:06:716,1.8801130683551908,3.471401650002548,0,0,0,36.0
00:00:06:726,1.8582646402036125,3.4831461485859765,0,0,0,36.0
00:00:06:736,1.8363428509458977,3.4947531385235604,0,0,0,36.0
00:00:06:746,1.814348566016747,3.5062221615912126,0,0,0,36.0
00:00:06:756,1.7922826537128758,3.5175527650115375,0,0,0,36.0
00:00:06:766,1.770145985158712,3.528744501471717,0,0,0,36.0
00:00:06:776,1.7479394342720327,3.5397969291411546,0,0,0,36.0
00:00:06:786,1.7256638777294369,3.550709611688935,0,0,0,36.0
00:00:06:796,1.7033201949317613,3.5614821183010323,0,0,0,36.0
00:00:06:806,1.680909267969338,3.572114023697335,0,0,0,36.0
00:00:06:816,1.658431981587196,3.58260490814842,0,0,0,36.0
00:00:06:826,1.6358892231501116,3.5929543574921334,0,0,0,36.0
00:00:06:836,1.613281882607585,3.603161963149937,0,0,0,36.0
00:00:06:846,1.5906108524587173,3.613227322143036,0,0,0,36.0
00:00:06:856,1.567877027716953,3.6231500371082945,0,0,0,36.0
00:00:06:866,1.5450813058747732,3.632929716313913,0,0,0,36.0
00:00:06:876,1.5222245868682376,3.642565973674905,0,0,0,36.0
00:00:06:886,1.4993077730414814,3.6520584287683264,0,0,0,36.0
00:00:06:896,1.4763317691110716,3.661406706848306,0,0,0,36.0
00:00:06:906,1.4532974821302989,3.6706104388608334,0,0,0,36.0
00:00:06:916,1.430205821453379,3.679669261458325,0,0,0,36.0
00:00:06:926,1.4070576986995293,3.6885828170139776,0,0,0,36.0
00:00:06:936,1.3838540277170068,3.697350753635879,0,0,0,36.0
00:00:06:946,1.3605957245470046,3.705972725180907,0,0,0,36.0
00:00:06:956,1.3372837073875137,3.714448391268385,0,0,0,36.0
00:00:06:966,1.3139188965570512,3.72277741729353,0,0,0,36.0
00:00:06:976,1.2905022144583393,3.7309594744406582,0,0,0,36.0
00:00:06:986,1.2670345855418972,3.7389942396961593,0,0,0,36.0
00:00:06:996,1.2435169362695255,3.7468813958612626,0,0,0,36.0
00:00:07:007,1.2199501950777554,3.754620631564544,0,0,0,36.0
00:00:07:017,1.1963352923411692,3.762211641274233,0,0,0,36.0
00:00:07:027,1.1726731603356995,3.769654125310262,0,0,0,36.0
00:00:07:037,1.1489647332017938,3.776947789856106,0,0,0,36.0
00:00:07:047,1.1252109469075677,3.7840923469703758,0,0,0,36.0
00:00:07:057,1.1014127392118274,3.7910875145981913,0,0,0,36.0
00:00:07:067,1.0775710496270603,3.797933016582313,0,0,0,36.0
00:00:07:077,1.0536868193823545,3.804628582674042,0,0,0,36.0
00:00:07:087,1.029760991386217,3.8111739485438956,0,0,0,36.0
00:00:07:097,1.005794510189376,3.8175688557920346,0,0,0,36.0
00:00:07:107,0.9817883219474653,3.823813051958473,0,0,0,36.0
00:00:07:117,0.9577433743836987,3.8299062905330357,0,0,0,36.0
00:00:07:127,0.9336606167514273,3.8358483309650993,0,0,0,36.0
00:00:07:137,0.9095409997966929,3.8416389386730794,0,0,0,36.0
00:00:07:147,0.8853854757206702,3.8472778850537,0,0,0,36.0
00:00:07:157,0.8611949981420853,3.852764947491015,0,0,0,36.0
00:00:07:167,0.8369705220595792,3.858099909365192,0,0,0,36.0
00:00:07:177,0.8127130038139819,3.8632825600610743,0,0,0,36.0
00:00:07:187,0.7884234010505852,3.868312694976483,0,0,0,36.0
00:00:07:197,0.7641026726813084,3.873190115530307,0,0,0,36.0
00:00:07:207,0.739751778846871,3.877914629170333,0,0,0,36.0
00:00:07:217,0.7153716808788627,3.8824860493808524,0,0,0,36.0
00:00:07:227,0.6909633412618025,3.8869041956900245,0,0,0,36.0
00:00:07:237,0.6665277235951512,3.891168893676996,0,0,0,36.0
00:00:07:247,0.6420657925552473,3.895279974978793,0,0,0,36.0
00:00:07:257,0.6175785138572495,3.8992372772969657,0,0,0,36.0
00:00:07:267,0.593066854216985,3.9030406444039953,0,0,0,36.0
00:00:07:277,0.5685317813128126,3.906689926149459,0,0,0,36.0
00:00:07:287,0.5439742637473962,3.910184978465963,0,0,0,36.0
00:00:07:297,0.5193952710094767,3.9135256633748265,0,0,0,36.0
00:00:07:307,0.49479577343560854,3.916711848991529,0,0,0,36.0
00:00:07:317,0.4701767421718276,3.919743409530919,0,0,0,36.0
00:00:07:327,0.44553914913534076,3.922620225312175,0,0,0,36.0
00:00:07:337,0.4208839669761278,3.9253421827635386,0,0,0,36.0
00:00:07:347,0.3962121690385708,3.927909174426788,0,0,0,36.0
00:00:07:357,0.3715247293230007,3.93032109896149,0,0,0,36.0
00:00:07:367,0.3468226224472726,3.9325778611489923,0,0,0,36.0
00:00:07:377,0.32210682360826576,3.9346793718961877,0,0,0,36.0
00:00:07:387,0.29737830854339453,3.9366255482390313,0,0,0,36.0
00:00:07:397,0.27263805349209874,3.938416313345813,0,0,0,36.0
00:00:07:407,0.24788703515727872,3.940051596520193,0,0,0,36.0
00:00:07:417,0.22312623066676482,3.9415313332039914,0,0,0,36.0
00:00:07:427,0.19835661753471395,3.9428554649797367,0,0,0,36.0
00:00:07:437,0.17357917362304726,3.944023939572975,0,0,0,36.0
00:00:07:447,0.14879487710281758,3.9450367108543296,0,0,0,36.0
00:00:07:457,0.12400470641562103,3.945893738841325,0,0,0,36.0
00:00:07:467,0.09920964023494525,3.9465949896999626,0,0,0,36.0
00:00:07:477,0.07441065742754359,3.9471404357460598,0,0,0,36.0
00:00:07:487,0.04960873701480166,3.9475300554463404,0,0,0,36.0
00:00:07:497,0.02480485813406265,3.947763833419286,0,0,0,36.0
00:00:07:507,7.252067663186827e-16,3.947841760435743,0,0,0,36.0
00:00:07:517,-0.024804858134064703,3.947763833419286,0,0,0,36.0
00:00:07:527,-0.04960873701480021,3.9475300554463404,0,0,0,36.0
00:00:07:537,-0.07441065742754215,3.9471404357460598,0,0,0,36.0
00:00:07:547,-0.09920964023494379,3.9465949896999626,0,0,0,36.0
00:00:07:557,-0.1240047064156196,3.945893738841325,0,0,0,36.0
00:00:07:567,-0.14879487710281966,3.94503671085433,0,0,0,36.0
00:00:07:577,-0.17357917362304584,3.9440239395729755,0,0,0,36.0
00:00:07:587,-0.19835661753471603,3.9428554649797367,0,0,0,36.0
00:00:07:597,-0.22312623066676338,3.941531333203991,0,0,0,36.0
00:00:07:607,-0.24788703515727734,3.940051596520193,0,0,0,36.0
00:00:07:617,-0.2726380534920973,3.9384163133458134,0,0,0,36.0
00:00:07:627,-0.2973783085433931,3.9366255482390318,0,0,0,36.0
00:00:07:637,-0.3221068236082643,3.934679371896188,0,0,0,36.0
00:00:07:647,-0.3468226224472712,3.9325778611489923,0,0,0,36.0
00:00:07:657,-0.37152472932300273,3.93032109896149,0,0,0,36.0
00:00:07:667,-0.39621216903856943,3.927909174426789,0,0,0,36.0
00:00:07:677,-0.4208839669761298,3.925342182763538,0,0,0,36.0
00:00:07:687,-0.4455391491353393,3.9226202253121754,0,0,0,36.0
00:00:07:697,-0.47017674217182615,3.919743409530919,0,0,0,36.0
00:00:07:707,-0.494795773435607,3.916711848991529,0,0,0,36.0
00:00:07:717,-0.5193952710094752,3.9135256633748265,0,0,0,36.0
00:00:07:727,-0.5439742637473947,3.9101849784659635,0,0,0,36.0
00:00:07:737,-0.568531781312811,3.9066899261494594,0,0,0,36.0
00:00:07:747,-0.593066854216987,3.9030406444039953,0,0,0,36.0
00:00:07:757,-0.617578513857248,3.899237277296966,0,0,0,36.0
00:00:07:767,-0.6420657925552493,3.8952799749787927,0,0,0,36.0
00:00:07:777,-0.6665277235951497,3.8911688936769955,0,0,0,36.0
00:00:07:787,-0.6909633412618009,3.8869041956900245,0,0,0,36.0
00:00:07:797,-0.7153716808788613,3.882486049380853,0,0,0,36.0
00:00:07:807,-0.7397517788468695,3.8779146291703332,0,0,0,36.0
00:00:07:817,-0.7641026726813104,3.8731901155303063,0,0,0,36.0
00:00:07:827,-0.7884234010505836,3.868312694976483,0,0,0,36.0
00:00:07:837,-0.8127130038139839,3.863282560061074,0,0,0,36.0
00:00:07:847,-0.8369705220595778,3.8580999093651926,0,0,0,36.0
00:00:07:857,-0.8611949981420838,3.8527649474910155,0,0,0,36.0
00:00:07:867,-0.8853854757206687,3.8472778850537006,0,0,0,36.0
00:00:07:877,-0.9095409997966913,3.84163893867308,0,0,0,36.0
00:00:07:887,-0.9336606167514292,3.835848330965099,0,0,0,36.0
00:00:07:897,-0.9577433743836973,3.8299062905330366,0,0,0,36.0
00:00:07:907,-0.9817883219474675,3.8238130519584725,0,0,0,36.0
00:00:07:917,-1.0057945101893746,3.817568855792035,0,0,0,36.0
00:00:07:927,-1.0297609913862156,3.811173948543896,0,0,0,36.0
00:00:07:937,-1.0536868193823532,3.8046285826740425,0,0,0,36.0
00:00:07:947,-1.077571049627059,3.7979330165823133,0,0,0,36.0
00:00:07:957,-1.101412739211826,3.7910875145981917,0,0,0,36.0
00:00:07:967,-1.1252109469075664,3.784092346970376,0,0,0,36.0
00:00:07:977,-1.148964733201796,3.7769477898561052,0,0,0,36.0
00:00:07:987,-1.1726731603356981,3.7696541253102622,0,0,0,36.0
00:00:07:997,-1.1963352923411714,3.7622116412742326,0,0,0,36.0
00:00:08:008,-1.219950195077754,3.7546206315645447,0,0,0,36.0
00:00:08:018,-1.2435169362695242,3.746881395861263,0,0,0,36.0
00:00:08:028,-1.267034585541896,3.7389942396961597,0,0,0,36.0
00:00:08:038,-1.290502214458338,3.7309594744406587,0,0,0,36.0
00:00:08:048,-1.31391889655705,3.722777417293531,0,0,0,36.0
00:00:08:058,-1.3372837073875123,3.7144483912683857,0,0,0,36.0
00:00:08:068,-1.3605957245470066,3.7059727251809065,0,0,0,36.0
00:00:08:078,-1.3838540277170057,3.6973507536358796,0,0,0,36.0
00:00:08:088,-1.4070576986995313,3.688582817013977,0,0,0,36.0
00:00:08:098,-1.4302058214533777,3.6796692614583253,0,0,0,36.0
00:00:08:108,-1.4532974821302975,3.670610438860834,0,0,0,36.0
00:00:08:118,-1.4763317691110704,3.661406706848307,0,0,0,36.0
00:00:08:128,-1.49930777304148,3.6520584287683273,0,0,0,36.0
00:00:08:138,-1.5222245868682396,3.642565973674904,0,0,0,36.0
00:00:08:148,-1.545081305874772,3.632929716313914,0,0,0,36.0
00:00:08:158,-1.5678770277169518,3.623150037108295,0,0,0,36.0
00:00:08:168,-1.590610852458716,3.613227322143037,0,0,0,36.0
00:00:08:178,-1.613281882607587,3.6031619631499363,0,0,0,36.0
00:00:08:188,-1.6358892231501103,3.5929543574921343,0,0,0,36.0
00:00:08:198,-1.6584319815871948,3.582604908148421,0,0,0,36.0
00:00:08:208,-1.6809092679693367,3.572114023697336,0,0,0,36.0
00:00:08:218,-1.7033201949317633,3.561482118301032,0,0,0,36.0
00:00:08:228,-1.7256638777294389,3.550709611688934,0,0,0,36.0
00:00:08:238,-1.7479394342720316,3.5397969291411555,0,0,0,36.0
00:00:08:248,-1.7701459851587107,3.528744501471718,0,0,0,36.0
00:00:08:258,-1.7922826537128744,3.5175527650115384,0,0,0,36.0
00:00:08:268,-1.814348566016749,3.5062221615912117,0,0,0,36.0
00:00:08:278,-1.8363428509458966,3.4947531385235613,0,0,0,36.0
00:00:08:288,-1.8582646402036114,3.4831461485859774,0,0,0,36.0
00:00:08:298,-1.8801130683551897,3.471401650002549,0,0,0,36.0
00:00:08:308,-1.9018872728621043,3.4595201064259666,0,0,0,36.0
00:00:08:318,-1.9235863941160332,3.4475019869192334,0,0,0,36.0
00:00:08:328,-1.9452095754728298,3.435347765937125,0,0,0,36.0
00:00:08:338,-1.966755963286319,3.4230579233074754,0,0,0,36.0
00:00:08:348,-1.9882247069420063,3.4106329442122263,0,0,0,36.0
00:00:08:358,-2.00961495889065,3.398073319168278,0,0,0,36.0
00:00:08:368,-2.0309258746817247,3.3853795440081242,0,0,0,36.0
00:00:08:378,-2.05215661299677,3.3725521198602717,0,0,0,36.0
00:00:08:388,-2.073306335682588,3.359591553129461,0,0,0,36.0
00:00:08:398,-2.0943742077843495,3.346498355476671,0,0,0,36.0
00:00:08:408,-2.115359397578524,3.333273043798934,0,0,0,36.0
00:00:08:418,-2.136261076605758,3.319916140208905,0,0,0,36.0
00:00:08:428,-2.157078419703552,3.306428172014268,0,0,0,36.0
00:00:08:438,-2.1778106050388493,3.2928096716969093,0,0,0,36.0
00:00:08:448,-2.1984568141404686,3.279061176891905,0,0,0,36.0
00:00:08:458,-2.2190162319314237,3.265183230366292,0,0,0,36.0
00:00:08:468,-2.2394880467611067,3.2511763799976325,0,0,0,36.0
00:00:08:478,-2.259871450437321,3.2370411787523965,0,0,0,36.0
00:00:08:488,-2.2801656382581976,3.222778184664122,0,0,0,36.0
00:00:08:498,-2.3003698090439393,3.2083879608114008,0,0,0,36.0
00:00:08:508,-2.320483165168483,3.193871075295627,0,0,0,36.0
00:00:08:518,-2.3405049125909705,3.179228101218584,0,0,0,36.0
00:00:08:528,-2.360434260887098,3.164459616659813,0,0,0,36.0
00:00:08:538,-2.380270423280316,3.149566204653799,0,0,0,36.0
00:00:08:548,-2.400012616672896,3.134548453166948,0,0,0,36.0
00:00:08:558,-2.4196600616768493,3.1194069550743735,0,0,0,36.0
00:00:08:568,-2.43921198264469,3.1041423081364923,0,0,0,36.0
00:00:08:578,-2.458667607700058,3.088755114975427,0,0,0,36.0
00:00:08:588,-2.4780261687681873,3.0732459830512178,0,0,0,36.0
00:00:08:598,-2.4972869016062313,3.0576155246378405,0,0,0,36.0
00:00:08:608,-2.5164490458334403,3.0418643567990267,0,0,0,36.0
00:00:08:618,-2.535511844961173,3.0259931013639103,0,0,0,36.0
00:00:08:628,-2.5544745464227585,3.010002384902482,0,0,0,36.0
00:00:08:638,-2.5733364016032096,2.99389283870085,0,0,0,36.0
00:00:08:648,-2.592096665868783,2.977665098736311,0,0,0,36.0
00:00:08:658,-2.6107545985963685,2.9613198056522543,0,0,0,36.0
00:00:08:668,-2.629309463202732,2.944857604732859,0,0,0,36.0
00:00:08:678,-2.647760527173587,2.9282791458776325,0,0,0,36.0
00:00:08:688,-2.6661070620925185,2.911585083575747,0,0,0,36.0
00:00:08:698,-2.6843483436697455,2.8947760768801936,0,0,0,36.0
00:00:08:708,-2.702483651770707,2.877852789381773,0,0,0,36.0
00:00:08:718,-2.7205122704444906,2.8608158891829008,0,0,0,36.0
00:00:08:728,-2.738433487952097,2.843666048871228,0,0,0,36.0
00:00:08:738,-2.756246596794549,2.8264039454930816,0,0,0,36.0
00:00:08:748,-2.773950893740809,2.809030260526746,0,0,0,36.0
00:00:08:758,-2.791545679855551,2.7915456798555525,0,0,0,36.0
00:00:08:768,-2.8090302605267445,2.77395089374081,0,0,0,36.0
00:00:08:778,-2.8264039454930803,2.7562465967945498,0,0,0,36.0
00:00:08:788,-2.843666048871227,2.7384334879520984,0,0,0,36.0
00:00:08:798,-2.860815889182902,2.7205122704444893,0,0,0,36.0
00:00:08:808,-2.877852789381772,2.7024836517707085,0,0,0,36.0
00:00:08:818,-2.8947760768801922,2.684348343669747,0,0,0,36.0
00:00:08:828,-2.911585083575746,2.6661070620925202,0,0,0,36.0
00:00:08:838,-2.9282791458776316,2.6477605271735882,0,0,0,36.0
00:00:08:848,-2.944857604732858,2.629309463202733,0,0,0,36.0
00:00:08:858,-2.961319805652253,2.61075459859637,0,0,0,36.0
00:00:08:868,-2.9776650987363102,2.5920966658687843,0,0,0,36.0
00:00:08:878,-2.993892838700849,2.573336401603211,0,0,0,36.0
00:00:08:888,-3.0100023849024833,2.554474546422757,0,0,0,36.0
00:00:08:898,-3.0259931013639094,2.535511844961175,0,0,0,36.0
00:00:08:908,-3.0418643567990253,2.5164490458334416,0,0,0,36.0
00:00:08:918,-3.057615524637839,2.4972869016062327,0,0,0,36.0
00:00:08:928,-3.073245983051217,2.4780261687681886,0,0,0,36.0
00:00:08:938,-3.0887551149754255,2.4586676077000593,0,0,0,36.0
00:00:08:948,-3.1041423081364914,2.439211982644691,0,0,0,36.0
00:00:08:958,-3.119406955074372,2.419660061676851,0,0,0,36.0
00:00:08:968,-3.134548453166947,2.400012616672897,0,0,0,36.0
00:00:08:978,-3.1495662046537998,2.3802704232803147,0,0,0,36.0
00:00:08:988,-3.1644596166598116,2.360434260887099,0,0,0,36.0
00:00:08:998,-3.1792281012185826,2.340504912590972,0,0,0,36.0
00:00:09:009,-3.193871075295626,2.320483165168485,0,0,0,36.0
00:00:09:019,-3.2083879608113994,2.3003698090439406,0,0,0,36.0
00:00:09:029,-3.222778184664123,2.2801656382581963,0,0,0,36.0
00:00:09:039,-3.2370411787523956,2.2598714504373225,0,0,0,36.0
00:00:09:049,-3.2511763799976316,2.239488046761108,0,0,0,36.0
00:00:09:059,-3.265183230366291,2.219016231931425,0,0,0,36.0
00:00:09:069,-3.279061176891906,2.1984568141404672,0,0,0,36.0
00:00:09:079,-3.2928096716969084,2.177810605038851,0,0,0,36.0
00:00:09:089,-3.3064281720142668,2.1570784197035535,0,0,0,36.0
00:00:09:099,-3.319916140208904,2.1362610766057593,0,0,0,36.0
00:00:09:109,-3.333273043798933,2.1153593975785254,0,0,0,36.0
00:00:09:119,-3.346498355476672,2.094374207784348,0,0,0,36.0
00:00:09:129,-3.35959155312946,2.07330633568259,0,0,0,36.0
00:00:09:139,-3.372552119860271,2.052156612996771,0,0,0,36.0
00:00:09:149,-3.3853795440081234,2.030925874681726,0,0,0,36.0
00:00:09:159,-3.398073319168279,2.0096149588906482,0,0,0,36.0
00:00:09:169,-3.410632944212225,1.988224706942008,0,0,0,36.0
00:00:09:179,-3.423057923307475,1.9667559632863205,0,0,0,36.0
00:00:09:189,-3.435347765937124,1.9452095754728314,0,0,0,36.0
00:00:09:199,-3.4475019869192325,1.9235863941160347,0,0,0,36.0
00:00:09:209,-3.4595201064259675,1.901887272862103,0,0,0,36.0
00:00:09:219,-3.471401650002546,1.880113068355194,0,0,0,36.0
00:00:09:229,-3.4831461485859765,1.8582646402036127,0,0,0,36.0
00:00:09:239,-3.4947531385235604,1.8363428509458979,0,0,0,36.0
00:00:09:249,-3.5062221615912126,1.8143485660167473,0,0,0,36.0
00:00:09:259,-3.5175527650115375,1.792282653712876,0,0,0,36.0
00:00:09:269,-3.528744501471717,1.770145985158712,0,0,0,36.0
00:00:09:279,-3.5397969291411546,1.747939434272033,0,0,0,36.0
00:00:09:289,-3.550709611688933,1.7256638777294402,0,0,0,36.0
00:00:09:299,-3.5614821183010323,1.7033201949317616,0,0,0,36.0
00:00:09:309,-3.572114023697334,1.6809092679693414,0,0,0,36.0
00:00:09:319,-3.58260490814842,1.6584319815871962,0,0,0,36.0
00:00:09:329,-3.592954357492133,1.6358892231501119,0,0,0,36.0
00:00:09:339,-3.603161963149937,1.6132818826075852,0,0,0,36.0
00:00:09:349,-3.613227322143036,1.5906108524587175,0,0,0,36.0
00:00:09:359,-3.6231500371082945,1.5678770277169531,0,0,0,36.0
00:00:09:369,-3.632929716313913,1.5450813058747734,0,0,0,36.0
00:00:09:379,-3.6425659736749036,1.522224586868241,0,0,0,36.0
00:00:09:389,-3.6520584287683264,1.4993077730414817,0,0,0,36.0
00:00:09:399,-3.661406706848306,1.4763317691110718,0,0,0,36.0
00:00:09:409,-3.670610438860833,1.453297482130299,0,0,0,36.0
00:00:09:419,-3.679669261458325,1.4302058214533793,0,0,0,36.0
00:00:09:429,-3.6885828170139776,1.4070576986995296,0,0,0,36.0
00:00:09:439,-3.697350753635879,1.383854027717007,0,0,0,36.0
00:00:09:449,-3.7059727251809056,1.3605957245470082,0,0,0,36.0
00:00:09:459,-3.714448391268385,1.337283707387514,0,0,0,36.0
00:00:09:469,-3.72277741729353,1.3139188965570514,0,0,0,36.0
00:00:09:479,-3.7309594744406582,1.2905022144583396,0,0,0,36.0
00:00:09:489,-3.7389942396961593,1.2670345855418974,0,0,0,36.0
00:00:09:499,-3.7468813958612626,1.2435169362695258,0,0,0,36.0
00:00:09:509,-3.754620631564544,1.2199501950777556,0,0,0,36.0
00:00:09:519,-3.762211641274233,1.1963352923411694,0,0,0,36.0
00:00:09:529,-3.7696541253102613,1.1726731603356995,0,0,0,36.0
00:00:09:539,-3.776947789856105,1.1489647332017974,0,0,0,36.0
00:00:09:549,-3.7840923469703758,1.125210946907568,0,0,0,36.0
00:00:09:559,-3.7910875145981913,1.1014127392118276,0,0,0,36.0
00:00:09:569,-3.797933016582313,1.0775710496270605,0,0,0,36.0
00:00:09:579,-3.804628582674042,1.0536868193823548,0,0,0,36.0
00:00:09:589,-3.8111739485438956,1.0297609913862171,0,0,0,36.0
00:00:09:599,-3.8175688557920346,1.0057945101893762,0,0,0,36.0
00:00:09:609,-3.823813051958473,0.9817883219474656,0,0,0,36.0
00:00:09:619,-3.8299062905330357,0.9577433743836989,0,0,0,36.0
00:00:09:629,-3.8358483309650984,0.9336606167514309,0,0,0,36.0
00:00:09:639,-3.8416389386730794,0.9095409997966931,0,0,0,36.0
00:00:09:649,-3.8472778850537,0.8853854757206703,0,0,0,36.0
00:00:09:659,-3.852764947491015,0.8611949981420856,0,0,0,36.0
00:00:09:669,-3.858099909365192,0.8369705220595794,0,0,0,36.0
00:00:09:679,-3.863282560061074,0.8127130038139821,0,0,0,36.0
00:00:09:689,-3.868312694976483,0.7884234010505854,0,0,0,36.0
00:00:09:699,-3.873190115530307,0.7641026726813086,0,0,0,36.0
00:00:09:709,-3.8779146291703324,0.7397517788468713,0,0,0,36.0
00:00:09:719,-3.8824860493808524,0.7153716808788629,0,0,0,36.0
00:00:09:729,-3.8869041956900245,0.6909633412618027,0,0,0,36.0
00:00:09:739,-3.8911688936769955,0.6665277235951514,0,0,0,36.0
00:00:09:749,-3.895279974978793,0.6420657925552475,0,0,0,36.0
00:00:09:759,-3.8992372772969657,0.6175785138572497,0,0,0,36.0
00:00:09:769,-3.9030406444039953,0.5930668542169852,0,0,0,36.0
00:00:09:779,-3.906689926149459,0.5685317813128128,0,0,0,36.0
00:00:09:789,-3.9101849784659635,0.543974263747393,0,0,0,36.0
00:00:09:799,-3.913525663374826,0.5193952710094769,0,0,0,36.0
00:00:09:809,-3.9167118489915285,0.49479577343560877,0,0,0,36.0
00:00:09:819,-3.9197434095309185,0.47017674217182787,0,0,0,36.0
00:00:09:829,-3.922620225312175,0.445539149135341,0,0,0,36.0
00:00:09:839,-3.9253421827635386,0.42088396697612807,0,0,0,36.0
00:00:09:849,-3.927909174426788,0.3962121690385711,0,0,0,36.0
00:00:09:859,-3.9303210989614894,0.37152472932300445,0,0,0,36.0
00:00:09:869,-3.9325778611489923,0.34682262244727285,0,0,0,36.0
00:00:09:879,-3.934679371896188,0.3221068236082625,0,0,0,36.0
00:00:09:889,-3.9366255482390313,0.2973783085433948,0,0,0,36.0
00:00:09:899,-3.938416313345813,0.272638053492099,0,0,0,36.0
00:00:09:909,-3.940051596520193,0.24788703515727897,0,0,0,36.0
00:00:09:919,-3.9415313332039914,0.22312623066676507,0,0,0,36.0
00:00:09:929,-3.9428554649797367,0.19835661753471417,0,0,0,36.0
00:00:09:939,-3.944023939572975,0.1735791736230475,0,0,0,36.0
00:00:09:949,-3.9450367108543296,0.1487948771028213,0,0,0,36.0
00:00:09:959,-3.945893738841325,0.12400470641562127,0,0,0,36.0
00:00:09:969,-3.946594989699963,0.09920964023494198,0,0,0,36.0
00:00:09:979,-3.9471404357460598,0.07441065742754384,0,0,0,36.0
00:00:09:989,-3.947530055446341,0.0496087370148019,0,0,0,36.0
00:00:10:000,-3.947763833419286,0.02480485813406289,0,0,0,36.0
