Time,Accel x[m/s^2],Accel y[m/s^2],Accel z[m/s^2],Spin x[degrees/sec],Spin y[degrees/sec],Spin z[degrees/sec]
1,-3.94784176,0.0,0.0,0.0,0.0,0.0
2,-3.947763677,-0.024829687,0.0,0.0,0.0,0.0
3,-3.947529431,-0.049658393,0.0,0.0,0.0,0.0
4,-3.947139031,-0.074485134,0.0,0.0,0.0,0.0
5,-3.946592493,-0.099308928,0.0,0.0,0.0,0.0
6,-3.945889837,-0.124128794,0.0,0.0,0.0,0.0
7,-3.945031093,-0.14894375,0.0,0.0,0.0,0.0
8,-3.944016294,-0.173752814,0.0,0.0,0.0,0.0
9,-3.94284548,-0.198555005,0.0,0.0,0.0,0.0
10,-3.941518697,-0.223349342,0.0,0.0,0.0,0.0
11,-3.940035998,-0.248134843,0.0,0.0,0.0,0.0
12,-3.938397442,-0.272910529,0.0,0.0,0.0,0.0
13,-3.936603093,-0.297675419,0.0,0.0,0.0,0.0
14,-3.934653022,-0.322428534,0.0,0.0,0.0,0.0
15,-3.932547307,-0.347168895,0.0,0.0,0.0,0.0
16,-3.930286031,-0.371895523,0.0,0.0,0.0,0.0
17,-3.927869283,-0.396607439,0.0,0.0,0.0,0.0
18,-3.925297159,-0.421303666,0.0,0.0,0.0,0.0
19,-3.92256976,-0.445983228,0.0,0.0,0.0,0.0
20,-3.919687195,-0.470645148,0.0,0.0,0.0,0.0
21,-3.916649578,-0.495288451,0.0,0.0,0.0,0.0
22,-3.913457028,-0.519912161,0.0,0.0,0.0,0.0
23,-3.910109672,-0.544515305,0.0,0.0,0.0,0.0
24,-3.906607643,-0.569096909,0.0,0.0,0.0,0.0
25,-3.902951078,-0.593656001,0.0,0.0,0.0,0.0
26,-3.899140123,-0.61819161,0.0,0.0,0.0,0.0
27,-3.895174928,-0.642702765,0.0,0.0,0.0,0.0
28,-3.891055651,-0.667188496,0.0,0.0,0.0,0.0
29,-3.886782453,-0.691647835,0.0,0.0,0.0,0.0
30,-3.882355505,-0.716079814,0.0,0.0,0.0,0.0
31,-3.877774981,-0.740483467,0.0,0.0,0.0,0.0
32,-3.873041062,-0.764857828,0.0,0.0,0.0,0.0
33,-3.868153936,-0.789201934,0.0,0.0,0.0,0.0
34,-3.863113796,-0.813514821,0.0,0.0,0.0,0.0
35,-3.857920842,-0.837795527,0.0,0.0,0.0,0.0
36,-3.852575278,-0.862043093,0.0,0.0,0.0,0.0
37,-3.847077316,-0.886256558,0.0,0.0,0.0,0.0
38,-3.841427175,-0.910434965,0.0,0.0,0.0,0.0
39,-3.835625076,-0.934577358,0.0,0.0,0.0,0.0
40,-3.829671251,-0.958682781,0.0,0.0,0.0,0.0
41,-3.823565934,-0.982750282,0.0,0.0,0.0,0.0
42,-3.817309366,-1.006778907,0.0,0.0,0.0,0.0
43,-3.810901796,-1.030767707,0.0,0.0,0.0,0.0
44,-3.804343477,-1.054715733,0.0,0.0,0.0,0.0
45,-3.797634667,-1.078622037,0.0,0.0,0.0,0.0
46,-3.790775634,-1.102485673,0.0,0.0,0.0,0.0
47,-3.783766647,-1.126305698,0.0,0.0,0.0,0.0
48,-3.776607985,-1.150081169,0.0,0.0,0.0,0.0
49,-3.76929993,-1.173811146,0.0,0.0,0.0,0.0
50,-3.761842771,-1.19749469,0.0,0.0,0.0,0.0
51,-3.754236804,-1.221130864,0.0,0.0,0.0,0.0
52,-3.746482329,-1.244718734,0.0,0.0,0.0,0.0
53,-3.738579653,-1.268257366,0.0,0.0,0.0,0.0
54,-3.730529088,-1.291745829,0.0,0.0,0.0,0.0
55,-3.722330954,-1.315183194,0.0,0.0,0.0,0.0
56,-3.713985574,-1.338568533,0.0,0.0,0.0,0.0
57,-3.705493279,-1.361900923,0.0,0.0,0.0,0.0
58,-3.696854404,-1.385179439,0.0,0.0,0.0,0.0
59,-3.688069292,-1.408403161,0.0,0.0,0.0,0.0
60,-3.679138289,-1.431571171,0.0,0.0,0.0,0.0
61,-3.670061749,-1.454682551,0.0,0.0,0.0,0.0
62,-3.660840031,-1.477736388,0.0,0.0,0.0,0.0
63,-3.6514735,-1.50073177,0.0,0.0,0.0,0.0
64,-3.641962526,-1.523667786,0.0,0.0,0.0,0.0
65,-3.632307486,-1.546543531,0.0,0.0,0.0,0.0
66,-3.622508761,-1.569358098,0.0,0.0,0.0,0.0
67,-3.61256674,-1.592110585,0.0,0.0,0.0,0.0
68,-3.602481815,-1.614800093,0.0,0.0,0.0,0.0
69,-3.592254385,-1.637425724,0.0,0.0,0.0,0.0
70,-3.581884855,-1.659986582,0.0,0.0,0.0,0.0
71,-3.571373635,-1.682481775,0.0,0.0,0.0,0.0
72,-3.560721141,-1.704910415,0.0,0.0,0.0,0.0
73,-3.549927794,-1.727271612,0.0,0.0,0.0,0.0
74,-3.538994022,-1.749564483,0.0,0.0,0.0,0.0
75,-3.527920256,-1.771788146,0.0,0.0,0.0,0.0
76,-3.516706935,-1.793941721,0.0,0.0,0.0,0.0
77,-3.505354502,-1.816024333,0.0,0.0,0.0,0.0
78,-3.493863407,-1.838035108,0.0,0.0,0.0,0.0
79,-3.482234104,-1.859973175,0.0,0.0,0.0,0.0
80,-3.470467053,-1.881837666,0.0,0.0,0.0,0.0
81,-3.458562719,-1.903627717,0.0,0.0,0.0,0.0
82,-3.446521573,-1.925342466,0.0,0.0,0.0,0.0
83,-3.434344093,-1.946981052,0.0,0.0,0.0,0.0
84,-3.422030758,-1.968542622,0.0,0.0,0.0,0.0
85,-3.409582058,-1.990026321,0.0,0.0,0.0,0.0
86,-3.396998483,-2.0114313,0.0,0.0,0.0,0.0
87,-3.384280532,-2.032756712,0.0,0.0,0.0,0.0
88,-3.371428707,-2.054001713,0.0,0.0,0.0,0.0
89,-3.358443518,-2.075165464,0.0,0.0,0.0,0.0
90,-3.345325478,-2.096247126,0.0,0.0,0.0,0.0
91,-3.332075105,-2.117245867,0.0,0.0,0.0,0.0
92,-3.318692924,-2.138160855,0.0,0.0,0.0,0.0
93,-3.305179465,-2.158991263,0.0,0.0,0.0,0.0
94,-3.291535261,-2.179736266,0.0,0.0,0.0,0.0
95,-3.277760853,-2.200395046,0.0,0.0,0.0,0.0
96,-3.263856785,-2.220966783,0.0,0.0,0.0,0.0
97,-3.249823608,-2.241450665,0.0,0.0,0.0,0.0
98,-3.235661876,-2.261845881,0.0,0.0,0.0,0.0
99,-3.22137215,-2.282151624,0.0,0.0,0.0,0.0
100,-3.206954995,-2.302367091,0.0,0.0,0.0,0.0
101,-3.192410982,-2.322491483,0.0,0.0,0.0,0.0
102,-3.177740685,-2.342524003,0.0,0.0,0.0,0.0
103,-3.162944685,-2.362463859,0.0,0.0,0.0,0.0
104,-3.148023567,-2.382310263,0.0,0.0,0.0,0.0
105,-3.132977922,-2.402062428,0.0,0.0,0.0,0.0
106,-3.117808344,-2.421719574,0.0,0.0,0.0,0.0
107,-3.102515434,-2.441280923,0.0,0.0,0.0,0.0
108,-3.087099797,-2.460745702,0.0,0.0,0.0,0.0
109,-3.071562042,-2.48011314,0.0,0.0,0.0,0.0
110,-3.055902784,-2.499382471,0.0,0.0,0.0,0.0
111,-3.040122643,-2.518552934,0.0,0.0,0.0,0.0
112,-3.024222243,-2.537623769,0.0,0.0,0.0,0.0
113,-3.008202212,-2.556594222,0.0,0.0,0.0,0.0
114,-2.992063185,-2.575463543,0.0,0.0,0.0,0.0
115,-2.9758058,-2.594230986,0.0,0.0,0.0,0.0
116,-2.9594307,-2.612895807,0.0,0.0,0.0,0.0
117,-2.942938532,-2.63145727,0.0,0.0,0.0,0.0
118,-2.92632995,-2.649914639,0.0,0.0,0.0,0.0
119,-2.909605609,-2.668267184,0.0,0.0,0.0,0.0
120,-2.892766172,-2.68651418,0.0,0.0,0.0,0.0
121,-2.875812306,-2.704654904,0.0,0.0,0.0,0.0
122,-2.858744679,-2.722688639,0.0,0.0,0.0,0.0
123,-2.841563968,-2.740614672,0.0,0.0,0.0,0.0
124,-2.824270853,-2.758432293,0.0,0.0,0.0,0.0
125,-2.806866016,-2.776140798,0.0,0.0,0.0,0.0
126,-2.789350148,-2.793739486,0.0,0.0,0.0,0.0
127,-2.77172394,-2.811227662,0.0,0.0,0.0,0.0
128,-2.75398809,-2.828604632,0.0,0.0,0.0,0.0
129,-2.7361433,-2.845869711,0.0,0.0,0.0,0.0
130,-2.718190274,-2.863022214,0.0,0.0,0.0,0.0
131,-2.700129725,-2.880061464,0.0,0.0,0.0,0.0
132,-2.681962365,-2.896986786,0.0,0.0,0.0,0.0
133,-2.663688915,-2.91379751,0.0,0.0,0.0,0.0
134,-2.645310095,-2.930492973,0.0,0.0,0.0,0.0
135,-2.626826634,-2.947072513,0.0,0.0,0.0,0.0
136,-2.608239263,-2.963535475,0.0,0.0,0.0,0.0
137,-2.589548717,-2.979881207,0.0,0.0,0.0,0.0
138,-2.570755735,-2.996109063,0.0,0.0,0.0,0.0
139,-2.55186106,-3.012218401,0.0,0.0,0.0,0.0
140,-2.532865441,-3.028208583,0.0,0.0,0.0,0.0
141,-2.513769629,-3.044078977,0.0,0.0,0.0,0.0
142,-2.494574378,-3.059828956,0.0,0.0,0.0,0.0
143,-2.475280448,-3.075457896,0.0,0.0,0.0,0.0
144,-2.455888603,-3.090965179,0.0,0.0,0.0,0.0
145,-2.436399609,-3.106350191,0.0,0.0,0.0,0.0
146,-2.416814238,-3.121612324,0.0,0.0,0.0,0.0
147,-2.397133264,-3.136750975,0.0,0.0,0.0,0.0
148,-2.377357466,-3.151765544,0.0,0.0,0.0,0.0
149,-2.357487626,-3.166655437,0.0,0.0,0.0,0.0
150,-2.33752453,-3.181420066,0.0,0.0,0.0,0.0
151,-2.317468967,-3.196058847,0.0,0.0,0.0,0.0
152,-2.297321732,-3.210571199,0.0,0.0,0.0,0.0
153,-2.27708362,-3.22495655,0.0,0.0,0.0,0.0
154,-2.256755433,-3.239214331,0.0,0.0,0.0,0.0
155,-2.236337975,-3.253343976,0.0,0.0,0.0,0.0
156,-2.215832053,-3.267344928,0.0,0.0,0.0,0.0
157,-2.195238479,-3.281216632,0.0,0.0,0.0,0.0
158,-2.174558067,-3.29495854,0.0,0.0,0.0,0.0
159,-2.153791635,-3.308570108,0.0,0.0,0.0,0.0
160,-2.132940005,-3.322050797,0.0,0.0,0.0,0.0
161,-2.112004001,-3.335400076,0.0,0.0,0.0,0.0
162,-2.090984452,-3.348617414,0.0,0.0,0.0,0.0
163,-2.069882189,-3.36170229,0.0,0.0,0.0,0.0
164,-2.048698047,-3.374654186,0.0,0.0,0.0,0.0
165,-2.027432864,-3.38747259,0.0,0.0,0.0,0.0
166,-2.006087481,-3.400156994,0.0,0.0,0.0,0.0
167,-1.984662743,-3.412706897,0.0,0.0,0.0,0.0
168,-1.963159497,-3.425121802,0.0,0.0,0.0,0.0
169,-1.941578593,-3.437401218,0.0,0.0,0.0,0.0
170,-1.919920885,-3.44954466,0.0,0.0,0.0,0.0
171,-1.89818723,-3.461551647,0.0,0.0,0.0,0.0
172,-1.876378489,-3.473421704,0.0,0.0,0.0,0.0
173,-1.854495522,-3.485154362,0.0,0.0,0.0,0.0
174,-1.832539197,-3.496749156,0.0,0.0,0.0,0.0
175,-1.810510381,-3.508205628,0.0,0.0,0.0,0.0
176,-1.788409946,-3.519523324,0.0,0.0,0.0,0.0
177,-1.766238766,-3.530701798,0.0,0.0,0.0,0.0
178,-1.743997719,-3.541740606,0.0,0.0,0.0,0.0
179,-1.721687684,-3.552639313,0.0,0.0,0.0,0.0
180,-1.699309543,-3.563397486,0.0,0.0,0.0,0.0
181,-1.676864182,-3.574014701,0.0,0.0,0.0,0.0
182,-1.654352489,-3.584490537,0.0,0.0,0.0,0.0
183,-1.631775353,-3.59482458,0.0,0.0,0.0,0.0
184,-1.60913367,-3.605016421,0.0,0.0,0.0,0.0
185,-1.586428333,-3.615065658,0.0,0.0,0.0,0.0
186,-1.563660241,-3.624971892,0.0,0.0,0.0,0.0
187,-1.540830295,-3.634734731,0.0,0.0,0.0,0.0
188,-1.517939397,-3.644353791,0.0,0.0,0.0,0.0
189,-1.494988454,-3.653828689,0.0,0.0,0.0,0.0
190,-1.471978374,-3.663159051,0.0,0.0,0.0,0.0
191,-1.448910065,-3.672344508,0.0,0.0,0.0,0.0
192,-1.425784442,-3.681384697,0.0,0.0,0.0,0.0
193,-1.402602418,-3.690279261,0.0,0.0,0.0,0.0
194,-1.379364911,-3.699027846,0.0,0.0,0.0,0.0
195,-1.35607284,-3.707630108,0.0,0.0,0.0,0.0
196,-1.332727127,-3.716085706,0.0,0.0,0.0,0.0
197,-1.309328694,-3.724394305,0.0,0.0,0.0,0.0
198,-1.285878467,-3.732555577,0.0,0.0,0.0,0.0
199,-1.262377375,-3.740569199,0.0,0.0,0.0,0.0
200,-1.238826346,-3.748434853,0.0,0.0,0.0,0.0
201,-1.215226313,-3.75615223,0.0,0.0,0.0,0.0
202,-1.191578208,-3.763721023,0.0,0.0,0.0,0.0
203,-1.167882968,-3.771140933,0.0,0.0,0.0,0.0
204,-1.144141529,-3.778411667,0.0,0.0,0.0,0.0
205,-1.120354832,-3.785532937,0.0,0.0,0.0,0.0
206,-1.096523815,-3.792504461,0.0,0.0,0.0,0.0
207,-1.072649424,-3.799325964,0.0,0.0,0.0,0.0
208,-1.048732601,-3.805997175,0.0,0.0,0.0,0.0
209,-1.024774293,-3.812517831,0.0,0.0,0.0,0.0
210,-1.000775448,-3.818887674,0.0,0.0,0.0,0.0
211,-0.976737014,-3.825106452,0.0,0.0,0.0,0.0
212,-0.952659944,-3.831173919,0.0,0.0,0.0,0.0
213,-0.928545188,-3.837089835,0.0,0.0,0.0,0.0
214,-0.904393702,-3.842853965,0.0,0.0,0.0,0.0
215,-0.880206441,-3.848466082,0.0,0.0,0.0,0.0
216,-0.855984361,-3.853925964,0.0,0.0,0.0,0.0
217,-0.83172842,-3.859233395,0.0,0.0,0.0,0.0
218,-0.807439579,-3.864388165,0.0,0.0,0.0,0.0
219,-0.783118797,-3.86939007,0.0,0.0,0.0,0.0
220,-0.758767037,-3.874238912,0.0,0.0,0.0,0.0
221,-0.734385262,-3.8789345,0.0,0.0,0.0,0.0
222,-0.709974437,-3.883476647,0.0,0.0,0.0,0.0
223,-0.685535527,-3.887865173,0.0,0.0,0.0,0.0
224,-0.6610695,-3.892099906,0.0,0.0,0.0,0.0
225,-0.636577322,-3.896180678,0.0,0.0,0.0,0.0
226,-0.612059963,-3.900107328,0.0,0.0,0.0,0.0
227,-0.587518392,-3.903879699,0.0,0.0,0.0,0.0
228,-0.56295358,-3.907497643,0.0,0.0,0.0,0.0
229,-0.5383665,-3.910961017,0.0,0.0,0.0,0.0
230,-0.513758123,-3.914269684,0.0,0.0,0.0,0.0
231,-0.489129424,-3.917423512,0.0,0.0,0.0,0.0
232,-0.464481376,-3.920422377,0.0,0.0,0.0,0.0
233,-0.439814954,-3.923266161,0.0,0.0,0.0,0.0
234,-0.415131134,-3.925954751,0.0,0.0,0.0,0.0
235,-0.390430892,-3.92848804,0.0,0.0,0.0,0.0
236,-0.365715207,-3.930865929,0.0,0.0,0.0,0.0
237,-0.340985054,-3.933088323,0.0,0.0,0.0,0.0
238,-0.316241413,-3.935155135,0.0,0.0,0.0,0.0
239,-0.291485262,-3.937066282,0.0,0.0,0.0,0.0
240,-0.266717581,-3.938821689,0.0,0.0,0.0,0.0
241,-0.24193935,-3.940421287,0.0,0.0,0.0,0.0
242,-0.217151548,-3.941865012,0.0,0.0,0.0,0.0
243,-0.192355156,-3.943152807,0.0,0.0,0.0,0.0
244,-0.167551154,-3.944284622,0.0,0.0,0.0,0.0
245,-0.142740525,-3.945260411,0.0,0.0,0.0,0.0
246,-0.11792425,-3.946080136,0.0,0.0,0.0,0.0
247,-0.09310331,-3.946743764,0.0,0.0,0.0,0.0
248,-0.068278686,-3.94725127,0.0,0.0,0.0,0.0
249,-0.043451362,-3.947602633,0.0,0.0,0.0,0.0
250,-0.018622319,-3.947797839,0.0,0.0,0.0,0.0
251,0.00620746,-3.94783688,0.0,0.0,0.0,0.0
252,0.031036994,-3.947719756,0.0,0.0,0.0,0.0
253,0.055865301,-3.94744647,0.0,0.0,0.0,0.0
254,0.080691397,-3.947017034,0.0,0.0,0.0,0.0
255,0.105514301,-3.946431464,0.0,0.0,0.0,0.0
256,0.130333032,-3.945689783,0.0,0.0,0.0,0.0
257,0.155146607,-3.944792022,0.0,0.0,0.0,0.0
258,0.179954045,-3.943738215,0.0,0.0,0.0,0.0
259,0.204754364,-3.942528404,0.0,0.0,0.0,0.0
260,0.229546584,-3.941162637,0.0,0.0,0.0,0.0
261,0.254329723,-3.939640968,0.0,0.0,0.0,0.0
262,0.279102802,-3.937963457,0.0,0.0,0.0,0.0
263,0.30386484,-3.936130171,0.0,0.0,0.0,0.0
264,0.328614859,-3.934141182,0.0,0.0,0.0,0.0
265,0.353351878,-3.931996569,0.0,0.0,0.0,0.0
266,0.378074919,-3.929696416,0.0,0.0,0.0,0.0
267,0.402783005,-3.927240815,0.0,0.0,0.0,0.0
268,0.427475157,-3.924629862,0.0,0.0,0.0,0.0
269,0.4521504,-3.921863662,0.0,0.0,0.0,0.0
270,0.476807757,-3.918942323,0.0,0.0,0.0,0.0
271,0.501446253,-3.915865961,0.0,0.0,0.0,0.0
272,0.526064913,-3.912634697,0.0,0.0,0.0,0.0
273,0.550662763,-3.90924866,0.0,0.0,0.0,0.0
274,0.575238831,-3.905707984,0.0,0.0,0.0,0.0
275,0.599792143,-3.902012808,0.0,0.0,0.0,0.0
276,0.624321729,-3.898163278,0.0,0.0,0.0,0.0
277,0.648826619,-3.894159548,0.0,0.0,0.0,0.0
278,0.673305843,-3.890001775,0.0,0.0,0.0,0.0
279,0.697758432,-3.885690123,0.0,0.0,0.0,0.0
280,0.722183421,-3.881224764,0.0,0.0,0.0,0.0
281,0.746579841,-3.876605874,0.0,0.0,0.0,0.0
282,0.770946729,-3.871833636,0.0,0.0,0.0,0.0
283,0.79528312,-3.866908238,0.0,0.0,0.0,0.0
284,0.819588052,-3.861829876,0.0,0.0,0.0,0.0
285,0.843860563,-3.85659875,0.0,0.0,0.0,0.0
286,0.868099693,-3.851215066,0.0,0.0,0.0,0.0
287,0.892304484,-3.845679039,0.0,0.0,0.0,0.0
288,0.916473977,-3.839990887,0.0,0.0,0.0,0.0
289,0.940607217,-3.834150835,0.0,0.0,0.0,0.0
290,0.964703249,-3.828159115,0.0,0.0,0.0,0.0
291,0.98876112,-3.822015962,0.0,0.0,0.0,0.0
292,1.012779878,-3.81572162,0.0,0.0,0.0,0.0
293,1.036758573,-3.809276339,0.0,0.0,0.0,0.0
294,1.060696257,-3.802680373,0.0,0.0,0.0,0.0
295,1.084591983,-3.795933982,0.0,0.0,0.0,0.0
296,1.108444804,-3.789037435,0.0,0.0,0.0,0.0
297,1.132253779,-3.781991003,0.0,0.0,0.0,0.0
298,1.156017965,-3.774794965,0.0,0.0,0.0,0.0
299,1.179736422,-3.767449607,0.0,0.0,0.0,0.0
300,1.203408211,-3.759955218,0.0,0.0,0.0,0.0
301,1.227032397,-3.752312096,0.0,0.0,0.0,0.0
302,1.250608044,-3.744520541,0.0,0.0,0.0,0.0
303,1.274134221,-3.736580864,0.0,0.0,0.0,0.0
304,1.297609997,-3.728493377,0.0,0.0,0.0,0.0
305,1.321034442,-3.720258401,0.0,0.0,0.0,0.0
306,1.344406631,-3.711876261,0.0,0.0,0.0,0.0
307,1.367725639,-3.703347289,0.0,0.0,0.0,0.0
308,1.390990543,-3.694671822,0.0,0.0,0.0,0.0
309,1.414200423,-3.685850204,0.0,0.0,0.0,0.0
310,1.437354361,-3.676882784,0.0,0.0,0.0,0.0
311,1.460451441,-3.667769916,0.0,0.0,0.0,0.0
312,1.483490749,-3.65851196,0.0,0.0,0.0,0.0
313,1.506471375,-3.649109283,0.0,0.0,0.0,0.0
314,1.529392408,-3.639562258,0.0,0.0,0.0,0.0
315,1.552252943,-3.62987126,0.0,0.0,0.0,0.0
316,1.575052075,-3.620036675,0.0,0.0,0.0,0.0
317,1.597788902,-3.61005889,0.0,0.0,0.0,0.0
318,1.620462524,-3.599938301,0.0,0.0,0.0,0.0
319,1.643072045,-3.589675308,0.0,0.0,0.0,0.0
320,1.665616571,-3.579270317,0.0,0.0,0.0,0.0
321,1.688095209,-3.56872374,0.0,0.0,0.0,0.0
322,1.710507071,-3.558035993,0.0,0.0,0.0,0.0
323,1.73285127,-3.547207499,0.0,0.0,0.0,0.0
324,1.755126921,-3.536238688,0.0,0.0,0.0,0.0
325,1.777333144,-3.525129992,0.0,0.0,0.0,0.0
326,1.799469061,-3.513881851,0.0,0.0,0.0,0.0
327,1.821533796,-3.50249471,0.0,0.0,0.0,0.0
328,1.843526475,-3.49096902,0.0,0.0,0.0,0.0
329,1.865446229,-3.479305237,0.0,0.0,0.0,0.0
330,1.887292192,-3.467503821,0.0,0.0,0.0,0.0
331,1.909063497,-3.45556524,0.0,0.0,0.0,0.0
332,1.930759286,-3.443489966,0.0,0.0,0.0,0.0
333,1.952378699,-3.431278476,0.0,0.0,0.0,0.0
334,1.97392088,-3.418931255,0.0,0.0,0.0,0.0
335,1.995384979,-3.406448789,0.0,0.0,0.0,0.0
336,2.016770145,-3.393831573,0.0,0.0,0.0,0.0
337,2.038075534,-3.381080106,0.0,0.0,0.0,0.0
338,2.059300301,-3.368194893,0.0,0.0,0.0,0.0
339,2.080443608,-3.355176442,0.0,0.0,0.0,0.0
340,2.101504618,-3.34202527,0.0,0.0,0.0,0.0
341,2.122482498,-3.328741896,0.0,0.0,0.0,0.0
342,2.143376418,-3.315326846,0.0,0.0,0.0,0.0
343,2.164185552,-3.30178065,0.0,0.0,0.0,0.0
344,2.184909077,-3.288103844,0.0,0.0,0.0,0.0
345,2.205546172,-3.27429697,0.0,0.0,0.0,0.0
346,2.226096022,-3.260360573,0.0,0.0,0.0,0.0
347,2.246557813,-3.246295205,0.0,0.0,0.0,0.0
348,2.266930736,-3.232101422,0.0,0.0,0.0,0.0
349,2.287213986,-3.217779786,0.0,0.0,0.0,0.0
350,2.307406759,-3.203330862,0.0,0.0,0.0,0.0
351,2.327508257,-3.188755224,0.0,0.0,0.0,0.0
352,2.347517686,-3.174053447,0.0,0.0,0.0,0.0
353,2.367434252,-3.159226112,0.0,0.0,0.0,0.0
354,2.387257169,-3.144273807,0.0,0.0,0.0,0.0
355,2.406985653,-3.129197122,0.0,0.0,0.0,0.0
356,2.426618923,-3.113996655,0.0,0.0,0.0,0.0
357,2.446156202,-3.098673007,0.0,0.0,0.0,0.0
358,2.465596717,-3.083226783,0.0,0.0,0.0,0.0
359,2.4849397,-3.067658594,0.0,0.0,0.0,0.0
360,2.504184386,-3.051969058,0.0,0.0,0.0,0.0
361,2.523330012,-3.036158793,0.0,0.0,0.0,0.0
362,2.542375822,-3.020228426,0.0,0.0,0.0,0.0
363,2.561321063,-3.004178587,0.0,0.0,0.0,0.0
364,2.580164984,-2.98800991,0.0,0.0,0.0,0.0
365,2.598906841,-2.971723035,0.0,0.0,0.0,0.0
366,2.617545892,-2.955318607,0.0,0.0,0.0,0.0
367,2.636081399,-2.938797275,0.0,0.0,0.0,0.0
368,2.654512631,-2.922159691,0.0,0.0,0.0,0.0
369,2.672838856,-2.905406514,0.0,0.0,0.0,0.0
370,2.691059352,-2.888538407,0.0,0.0,0.0,0.0
371,2.709173396,-2.871556038,0.0,0.0,0.0,0.0
372,2.727180272,-2.854460077,0.0,0.0,0.0,0.0
373,2.745079268,-2.837251201,0.0,0.0,0.0,0.0
374,2.762869677,-2.819930091,0.0,0.0,0.0,0.0
375,2.780550793,-2.802497432,0.0,0.0,0.0,0.0
376,2.798121918,-2.784953913,0.0,0.0,0.0,0.0
377,2.815582357,-2.767300229,0.0,0.0,0.0,0.0
378,2.832931418,-2.749537078,0.0,0.0,0.0,0.0
379,2.850168417,-2.731665163,0.0,0.0,0.0,0.0
380,2.86729267,-2.71368519,0.0,0.0,0.0,0.0
381,2.884303501,-2.695597871,0.0,0.0,0.0,0.0
382,2.901200236,-2.677403921,0.0,0.0,0.0,0.0
383,2.917982208,-2.65910406,0.0,0.0,0.0,0.0
384,2.934648752,-2.640699012,0.0,0.0,0.0,0.0
385,2.951199209,-2.622189504,0.0,0.0,0.0,0.0
386,2.967632924,-2.60357627,0.0,0.0,0.0,0.0
387,2.983949247,-2.584860046,0.0,0.0,0.0,0.0
388,3.000147533,-2.566041571,0.0,0.0,0.0,0.0
389,3.016227142,-2.54712159,0.0,0.0,0.0,0.0
390,3.032187436,-2.528100852,0.0,0.0,0.0,0.0
391,3.048027785,-2.508980109,0.0,0.0,0.0,0.0
392,3.063747562,-2.489760117,0.0,0.0,0.0,0.0
393,3.079346146,-2.470441637,0.0,0.0,0.0,0.0
394,3.094822918,-2.451025432,0.0,0.0,0.0,0.0
395,3.110177268,-2.431512272,0.0,0.0,0.0,0.0
396,3.125408587,-2.411902927,0.0,0.0,0.0,0.0
397,3.140516273,-2.392198174,0.0,0.0,0.0,0.0
398,3.155499729,-2.372398792,0.0,0.0,0.0,0.0
399,3.170358361,-2.352505564,0.0,0.0,0.0,0.0
400,3.185091582,-2.332519277,0.0,0.0,0.0,0.0
401,3.19969881,-2.312440722,0.0,0.0,0.0,0.0
402,3.214179466,-2.292270692,0.0,0.0,0.0,0.0
403,3.228532977,-2.272009987,0.0,0.0,0.0,0.0
404,3.242758776,-2.251659407,0.0,0.0,0.0,0.0
405,3.256856301,-2.231219757,0.0,0.0,0.0,0.0
406,3.270824992,-2.210691846,0.0,0.0,0.0,0.0
407,3.284664299,-2.190076485,0.0,0.0,0.0,0.0
408,3.298373672,-2.169374491,0.0,0.0,0.0,0.0
409,3.311952571,-2.148586683,0.0,0.0,0.0,0.0
410,3.325400458,-2.127713882,0.0,0.0,0.0,0.0
411,3.3387168,-2.106756914,0.0,0.0,0.0,0.0
412,3.351901072,-2.085716608,0.0,0.0,0.0,0.0
413,3.364952751,-2.064593797,0.0,0.0,0.0,0.0
414,3.377871322,-2.043389316,0.0,0.0,0.0,0.0
415,3.390656273,-2.022104004,0.0,0.0,0.0,0.0
416,3.403307098,-2.000738703,0.0,0.0,0.0,0.0
417,3.415823298,-1.979294258,0.0,0.0,0.0,0.0
418,3.428204377,-1.957771518,0.0,0.0,0.0,0.0
419,3.440449845,-1.936171333,0.0,0.0,0.0,0.0
420,3.452559218,-1.914494558,0.0,0.0,0.0,0.0
421,3.464532017,-1.892742051,0.0,0.0,0.0,0.0
422,3.476367768,-1.870914672,0.0,0.0,0.0,0.0
423,3.488066003,-1.849013284,0.0,0.0,0.0,0.0
424,3.499626259,-1.827038755,0.0,0.0,0.0,0.0
425,3.51104808,-1.804991952,0.0,0.0,0.0,0.0
426,3.522331012,-1.782873749,0.0,0.0,0.0,0.0
427,3.533474611,-1.76068502,0.0,0.0,0.0,0.0
428,3.544478434,-1.738426643,0.0,0.0,0.0,0.0
429,3.555342048,-1.716099499,0.0,0.0,0.0,0.0
430,3.566065021,-1.69370447,0.0,0.0,0.0,0.0
431,3.57664693,-1.671242442,0.0,0.0,0.0,0.0
432,3.587087357,-1.648714305,0.0,0.0,0.0,0.0
433,3.597385888,-1.626120949,0.0,0.0,0.0,0.0
434,3.607542115,-1.603463268,0.0,0.0,0.0,0.0
435,3.617555638,-1.580742158,0.0,0.0,0.0,0.0
436,3.62742606,-1.557958518,0.0,0.0,0.0,0.0
437,3.637152991,-1.535113249,0.0,0.0,0.0,0.0
438,3.646736045,-1.512207256,0.0,0.0,0.0,0.0
439,3.656174844,-1.489241443,0.0,0.0,0.0,0.0
440,3.665469014,-1.46621672,0.0,0.0,0.0,0.0
441,3.674618189,-1.443133997,0.0,0.0,0.0,0.0
442,3.683622005,-1.419994188,0.0,0.0,0.0,0.0
443,3.692480106,-1.396798207,0.0,0.0,0.0,0.0
444,3.701192143,-1.373546973,0.0,0.0,0.0,0.0
445,3.70975777,-1.350241405,0.0,0.0,0.0,0.0
446,3.718176649,-1.326882425,0.0,0.0,0.0,0.0
447,3.726448447,-1.303470957,0.0,0.0,0.0,0.0
448,3.734572837,-1.280007927,0.0,0.0,0.0,0.0
449,3.742549496,-1.256494263,0.0,0.0,0.0,0.0
450,3.750378111,-1.232930896,0.0,0.0,0.0,0.0
451,3.75805837,-1.209318757,0.0,0.0,0.0,0.0
452,3.76558997,-1.185658781,0.0,0.0,0.0,0.0
453,3.772972613,-1.161951903,0.0,0.0,0.0,0.0
454,3.780206008,-1.138199061,0.0,0.0,0.0,0.0
455,3.787289868,-1.114401196,0.0,0.0,0.0,0.0
456,3.794223912,-1.090559247,0.0,0.0,0.0,0.0
457,3.801007867,-1.066674159,0.0,0.0,0.0,0.0
458,3.807641464,-1.042746876,0.0,0.0,0.0,0.0
459,3.814124441,-1.018778345,0.0,0.0,0.0,0.0
460,3.820456541,-0.994769513,0.0,0.0,0.0,0.0
461,3.826637514,-0.970721332,0.0,0.0,0.0,0.0
462,3.832667115,-0.946634751,0.0,0.0,0.0,0.0
463,3.838545106,-0.922510723,0.0,0.0,0.0,0.0
464,3.844271254,-0.898350204,0.0,0.0,0.0,0.0
465,3.849845333,-0.874154148,0.0,0.0,0.0,0.0
466,3.855267123,-0.849923513,0.0,0.0,0.0,0.0
467,3.860536408,-0.825659257,0.0,0.0,0.0,0.0
468,3.86565298,-0.80136234,0.0,0.0,0.0,0.0
469,3.870616638,-0.777033723,0.0,0.0,0.0,0.0
470,3.875427184,-0.752674369,0.0,0.0,0.0,0.0
471,3.880084428,-0.728285242,0.0,0.0,0.0,0.0
472,3.884588187,-0.703867305,0.0,0.0,0.0,0.0
473,3.888938281,-0.679421525,0.0,0.0,0.0,0.0
474,3.89313454,-0.654948869,0.0,0.0,0.0,0.0
475,3.897176796,-0.630450305,0.0,0.0,0.0,0.0
476,3.90106489,-0.605926802,0.0,0.0,0.0,0.0
477,3.904798668,-0.58137933,0.0,0.0,0.0,0.0
478,3.908377983,-0.55680886,0.0,0.0,0.0,0.0
479,3.911802693,-0.532216364,0.0,0.0,0.0,0.0
480,3.915072662,-0.507602816,0.0,0.0,0.0,0.0
481,3.918187761,-0.482969188,0.0,0.0,0.0,0.0
482,3.921147867,-0.458316454,0.0,0.0,0.0,0.0
483,3.923952862,-0.433645592,0.0,0.0,0.0,0.0
484,3.926602637,-0.408957575,0.0,0.0,0.0,0.0
485,3.929097085,-0.384253381,0.0,0.0,0.0,0.0
486,3.931436109,-0.359533987,0.0,0.0,0.0,0.0
487,3.933619615,-0.33480037,0.0,0.0,0.0,0.0
488,3.935647518,-0.31005351,0.0,0.0,0.0,0.0
489,3.937519737,-0.285294385,0.0,0.0,0.0,0.0
490,3.939236198,-0.260523974,0.0,0.0,0.0,0.0
491,3.940796833,-0.235743258,0.0,0.0,0.0,0.0
492,3.942201581,-0.210953217,0.0,0.0,0.0,0.0
493,3.943450386,-0.18615483,0.0,0.0,0.0,0.0
494,3.944543198,-0.16134908,0.0,0.0,0.0,0.0
495,3.945479974,-0.136536947,0.0,0.0,0.0,0.0
496,3.946260678,-0.111719414,0.0,0.0,0.0,0.0
497,3.946885278,-0.086897461,0.0,0.0,0.0,0.0
498,3.947353749,-0.06207207,0.0,0.0,0.0,0.0
499,3.947666074,-0.037244224,0.0,0.0,0.0,0.0
500,3.94782224,-0.012414905,0.0,0.0,0.0,0.0
501,3.94782224,0.012414905,0.0,0.0,0.0,0.0
502,3.947666074,0.037244224,0.0,0.0,0.0,0.0
503,3.947353749,0.06207207,0.0,0.0,0.0,0.0
504,3.946885278,0.086897461,0.0,0.0,0.0,0.0
505,3.946260678,0.111719414,0.0,0.0,0.0,0.0
506,3.945479974,0.136536947,0.0,0.0,0.0,0.0
507,3.944543198,0.16134908,0.0,0.0,0.0,0.0
508,3.943450386,0.18615483,0.0,0.0,0.0,0.0
509,3.942201581,0.210953217,0.0,0.0,0.0,0.0
510,3.940796833,0.235743258,0.0,0.0,0.0,0.0
511,3.939236198,0.260523974,0.0,0.0,0.0,0.0
512,3.937519737,0.285294385,0.0,0.0,0.0,0.0
513,3.935647518,0.31005351,0.0,0.0,0.0,0.0
514,3.933619615,0.33480037,0.0,0.0,0.0,0.0
515,3.931436109,0.359533987,0.0,0.0,0.0,0.0
516,3.929097085,0.384253381,0.0,0.0,0.0,0.0
517,3.926602637,0.408957575,0.0,0.0,0.0,0.0
518,3.923952862,0.433645592,0.0,0.0,0.0,0.0
519,3.921147867,0.458316454,0.0,0.0,0.0,0.0
520,3.918187761,0.482969188,0.0,0.0,0.0,0.0
521,3.915072662,0.507602816,0.0,0.0,0.0,0.0
522,3.911802693,0.532216364,0.0,0.0,0.0,0.0
523,3.908377983,0.55680886,0.0,0.0,0.0,0.0
524,3.904798668,0.58137933,0.0,0.0,0.0,0.0
525,3.90106489,0.605926802,0.0,0.0,0.0,0.0
526,3.897176796,0.630450305,0.0,0.0,0.0,0.0
527,3.89313454,0.654948869,0.0,0.0,0.0,0.0
528,3.888938281,0.679421525,0.0,0.0,0.0,0.0
529,3.884588187,0.703867305,0.0,0.0,0.0,0.0
530,3.880084428,0.728285242,0.0,0.0,0.0,0.0
531,3.875427184,0.752674369,0.0,0.0,0.0,0.0
532,3.870616638,0.777033723,0.0,0.0,0.0,0.0
533,3.86565298,0.80136234,0.0,0.0,0.0,0.0
534,3.860536408,0.825659257,0.0,0.0,0.0,0.0
535,3.855267123,0.849923513,0.0,0.0,0.0,0.0
536,3.849845333,0.874154148,0.0,0.0,0.0,0.0
537,3.844271254,0.898350204,0.0,0.0,0.0,0.0
538,3.838545106,0.922510723,0.0,0.0,0.0,0.0
539,3.832667115,0.946634751,0.0,0.0,0.0,0.0
540,3.826637514,0.970721332,0.0,0.0,0.0,0.0
541,3.820456541,0.994769513,0.0,0.0,0.0,0.0
542,3.814124441,1.018778345,0.0,0.0,0.0,0.0
543,3.807641464,1.042746876,0.0,0.0,0.0,0.0
544,3.801007867,1.066674159,0.0,0.0,0.0,0.0
545,3.794223912,1.090559247,0.0,0.0,0.0,0.0
546,3.787289868,1.114401196,0.0,0.0,0.0,0.0
547,3.780206008,1.138199061,0.0,0.0,0.0,0.0
548,3.772972613,1.161951903,0.0,0.0,0.0,0.0
549,3.76558997,1.185658781,0.0,0.0,0.0,0.0
550,3.75805837,1.209318757,0.0,0.0,0.0,0.0
551,3.750378111,1.232930896,0.0,0.0,0.0,0.0
552,3.742549496,1.256494263,0.0,0.0,0.0,0.0
553,3.734572837,1.280007927,0.0,0.0,0.0,0.0
554,3.726448447,1.303470957,0.0,0.0,0.0,0.0
555,3.718176649,1.326882425,0.0,0.0,0.0,0.0
556,3.70975777,1.350241405,0.0,0.0,0.0,0.0
557,3.701192143,1.373546973,0.0,0.0,0.0,0.0
558,3.692480106,1.396798207,0.0,0.0,0.0,0.0
559,3.683622005,1.419994188,0.0,0.0,0.0,0.0
560,3.674618189,1.443133997,0.0,0.0,0.0,0.0
561,3.665469014,1.46621672,0.0,0.0,0.0,0.0
562,3.656174844,1.489241443,0.0,0.0,0.0,0.0
563,3.646736045,1.512207256,0.0,0.0,0.0,0.0
564,3.637152991,1.535113249,0.0,0.0,0.0,0.0
565,3.62742606,1.557958518,0.0,0.0,0.0,0.0
566,3.617555638,1.580742158,0.0,0.0,0.0,0.0
567,3.607542115,1.603463268,0.0,0.0,0.0,0.0
568,3.597385888,1.626120949,0.0,0.0,0.0,0.0
569,3.587087357,1.648714305,0.0,0.0,0.0,0.0
570,3.57664693,1.671242442,0.0,0.0,0.0,0.0
571,3.566065021,1.69370447,0.0,0.0,0.0,0.0
572,3.555342048,1.716099499,0.0,0.0,0.0,0.0
573,3.544478434,1.738426643,0.0,0.0,0.0,0.0
574,3.533474611,1.76068502,0.0,0.0,0.0,0.0
575,3.522331012,1.782873749,0.0,0.0,0.0,0.0
576,3.51104808,1.804991952,0.0,0.0,0.0,0.0
577,3.499626259,1.827038755,0.0,0.0,0.0,0.0
578,3.488066003,1.849013284,0.0,0.0,0.0,0.0
579,3.476367768,1.870914672,0.0,0.0,0.0,0.0
580,3.464532017,1.892742051,0.0,0.0,0.0,0.0
581,3.452559218,1.914494558,0.0,0.0,0.0,0.0
582,3.440449845,1.936171333,0.0,0.0,0.0,0.0
583,3.428204377,1.957771518,0.0,0.0,0.0,0.0
584,3.415823298,1.979294258,0.0,0.0,0.0,0.0
585,3.403307098,2.000738703,0.0,0.0,0.0,0.0
586,3.390656273,2.022104004,0.0,0.0,0.0,0.0
587,3.377871322,2.043389316,0.0,0.0,0.0,0.0
588,3.364952751,2.064593797,0.0,0.0,0.0,0.0
589,3.351901072,2.085716608,0.0,0.0,0.0,0.0
590,3.3387168,2.106756914,0.0,0.0,0.0,0.0
591,3.325400458,2.127713882,0.0,0.0,0.0,0.0
592,3.311952571,2.148586683,0.0,0.0,0.0,0.0
593,3.298373672,2.169374491,0.0,0.0,0.0,0.0
594,3.284664299,2.190076485,0.0,0.0,0.0,0.0
595,3.270824992,2.210691846,0.0,0.0,0.0,0.0
596,3.256856301,2.231219757,0.0,0.0,0.0,0.0
597,3.242758776,2.251659407,0.0,0.0,0.0,0.0
598,3.228532977,2.272009987,0.0,0.0,0.0,0.0
599,3.214179466,2.292270692,0.0,0.0,0.0,0.0
600,3.19969881,2.312440722,0.0,0.0,0.0,0.0
601,3.185091582,2.332519277,0.0,0.0,0.0,0.0
602,3.170358361,2.352505564,0.0,0.0,0.0,0.0
603,3.155499729,2.372398792,0.0,0.0,0.0,0.0
604,3.140516273,2.392198174,0.0,0.0,0.0,0.0
605,3.125408587,2.411902927,0.0,0.0,0.0,0.0
606,3.110177268,2.431512272,0.0,0.0,0.0,0.0
607,3.094822918,2.451025432,0.0,0.0,0.0,0.0
608,3.079346146,2.470441637,0.0,0.0,0.0,0.0
609,3.063747562,2.489760117,0.0,0.0,0.0,0.0
610,3.048027785,2.508980109,0.0,0.0,0.0,0.0
611,3.032187436,2.528100852,0.0,0.0,0.0,0.0
612,3.016227142,2.54712159,0.0,0.0,0.0,0.0
613,3.000147533,2.566041571,0.0,0.0,0.0,0.0
614,2.983949247,2.584860046,0.0,0.0,0.0,0.0
615,2.967632924,2.60357627,0.0,0.0,0.0,0.0
616,2.951199209,2.622189504,0.0,0.0,0.0,0.0
617,2.934648752,2.640699012,0.0,0.0,0.0,0.0
618,2.917982208,2.65910406,0.0,0.0,0.0,0.0
619,2.901200236,2.677403921,0.0,0.0,0.0,0.0
620,2.884303501,2.695597871,0.0,0.0,0.0,0.0
621,2.86729267,2.71368519,0.0,0.0,0.0,0.0
622,2.850168417,2.731665163,0.0,0.0,0.0,0.0
623,2.832931418,2.749537078,0.0,0.0,0.0,0.0
624,2.815582357,2.767300229,0.0,0.0,0.0,0.0
625,2.798121918,2.784953913,0.0,0.0,0.0,0.0
626,2.780550793,2.802497432,0.0,0.0,0.0,0.0
627,2.762869677,2.819930091,0.0,0.0,0.0,0.0
628,2.745079268,2.837251201,0.0,0.0,0.0,0.0
629,2.727180272,2.854460077,0.0,0.0,0.0,0.0
630,2.709173396,2.871556038,0.0,0.0,0.0,0.0
631,2.691059352,2.888538407,0.0,0.0,0.0,0.0
632,2.672838856,2.905406514,0.0,0.0,0.0,0.0
633,2.654512631,2.922159691,0.0,0.0,0.0,0.0
634,2.636081399,2.938797275,0.0,0.0,0.0,0.0
635,2.617545892,2.955318607,0.0,0.0,0.0,0.0
636,2.598906841,2.971723035,0.0,0.0,0.0,0.0
637,2.580164984,2.98800991,0.0,0.0,0.0,0.0
638,2.561321063,3.004178587,0.0,0.0,0.0,0.0
639,2.542375822,3.020228426,0.0,0.0,0.0,0.0
640,2.523330012,3.036158793,0.0,0.0,0.0,0.0
641,2.504184386,3.051969058,0.0,0.0,0.0,0.0
642,2.4849397,3.067658594,0.0,0.0,0.0,0.0
643,2.465596717,3.083226783,0.0,0.0,0.0,0.0
644,2.446156202,3.098673007,0.0,0.0,0.0,0.0
645,2.426618923,3.113996655,0.0,0.0,0.0,0.0
646,2.406985653,3.129197122,0.0,0.0,0.0,0.0
647,2.387257169,3.144273807,0.0,0.0,0.0,0.0
648,2.367434252,3.159226112,0.0,0.0,0.0,0.0
649,2.347517686,3.174053447,0.0,0.0,0.0,0.0
650,2.327508257,3.188755224,0.0,0.0,0.0,0.0
651,2.307406759,3.203330862,0.0,0.0,0.0,0.0
652,2.287213986,3.217779786,0.0,0.0,0.0,0.0
653,2.266930736,3.232101422,0.0,0.0,0.0,0.0
654,2.246557813,3.246295205,0.0,0.0,0.0,0.0
655,2.226096022,3.260360573,0.0,0.0,0.0,0.0
656,2.205546172,3.27429697,0.0,0.0,0.0,0.0
657,2.184909077,3.288103844,0.0,0.0,0.0,0.0
658,2.164185552,3.30178065,0.0,0.0,0.0,0.0
659,2.143376418,3.315326846,0.0,0.0,0.0,0.0
660,2.122482498,3.328741896,0.0,0.0,0.0,0.0
661,2.101504618,3.34202527,0.0,0.0,0.0,0.0
662,2.080443608,3.355176442,0.0,0.0,0.0,0.0
663,2.059300301,3.368194893,0.0,0.0,0.0,0.0
664,2.038075534,3.381080106,0.0,0.0,0.0,0.0
665,2.016770145,3.393831573,0.0,0.0,0.0,0.0
666,1.995384979,3.406448789,0.0,0.0,0.0,0.0
667,1.97392088,3.418931255,0.0,0.0,0.0,0.0
668,1.952378699,3.431278476,0.0,0.0,0.0,0.0
669,1.930759286,3.443489966,0.0,0.0,0.0,0.0
670,1.909063497,3.45556524,0.0,0.0,0.0,0.0
671,1.887292192,3.467503821,0.0,0.0,0.0,0.0
672,1.865446229,3.479305237,0.0,0.0,0.0,0.0
673,1.843526475,3.49096902,0.0,0.0,0.0,0.0
674,1.821533796,3.50249471,0.0,0.0,0.0,0.0
675,1.799469061,3.513881851,0.0,0.0,0.0,0.0
676,1.777333144,3.525129992,0.0,0.0,0.0,0.0
677,1.755126921,3.536238688,0.0,0.0,0.0,0.0
678,1.73285127,3.547207499,0.0,0.0,0.0,0.0
679,1.710507071,3.558035993,0.0,0.0,0.0,0.0
680,1.688095209,3.56872374,0.0,0.0,0.0,0.0
681,1.665616571,3.579270317,0.0,0.0,0.0,0.0
682,1.643072045,3.589675308,0.0,0.0,0.0,0.0
683,1.620462524,3.599938301,0.0,0.0,0.0,0.0
684,1.597788902,3.61005889,0.0,0.0,0.0,0.0
685,1.575052075,3.620036675,0.0,0.0,0.0,0.0
686,1.552252943,3.62987126,0.0,0.0,0.0,0.0
687,1.529392408,3.639562258,0.0,0.0,0.0,0.0
688,1.506471375,3.649109283,0.0,0.0,0.0,0.0
689,1.483490749,3.65851196,0.0,0.0,0.0,0.0
690,1.460451441,3.667769916,0.0,0.0,0.0,0.0
691,1.437354361,3.676882784,0.0,0.0,0.0,0.0
692,1.414200423,3.685850204,0.0,0.0,0.0,0.0
693,1.390990543,3.694671822,0.0,0.0,0.0,0.0
694,1.367725639,3.703347289,0.0,0.0,0.0,0.0
695,1.344406631,3.711876261,0.0,0.0,0.0,0.0
696,1.321034442,3.720258401,0.0,0.0,0.0,0.0
697,1.297609997,3.728493377,0.0,0.0,0.0,0.0
698,1.274134221,3.736580864,0.0,0.0,0.0,0.0
699,1.250608044,3.744520541,0.0,0.0,0.0,0.0
700,1.227032397,3.752312096,0.0,0.0,0.0,0.0
701,1.203408211,3.759955218,0.0,0.0,0.0,0.0
702,1.179736422,3.767449607,0.0,0.0,0.0,0.0
703,1.156017965,3.774794965,0.0,0.0,0.0,0.0
704,1.132253779,3.781991003,0.0,0.0,0.0,0.0
705,1.108444804,3.789037435,0.0,0.0,0.0,0.0
706,1.084591983,3.795933982,0.0,0.0,0.0,0.0
707,1.060696257,3.802680373,0.0,0.0,0.0,0.0
708,1.036758573,3.809276339,0.0,0.0,0.0,0.0
709,1.012779878,3.81572162,0.0,0.0,0.0,0.0
710,0.98876112,3.822015962,0.0,0.0,0.0,0.0
711,0.964703249,3.828159115,0.0,0.0,0.0,0.0
712,0.940607217,3.834150835,0.0,0.0,0.0,0.0
713,0.916473977,3.839990887,0.0,0.0,0.0,0.0
714,0.892304484,3.845679039,0.0,0.0,0.0,0.0
715,0.868099693,3.851215066,0.0,0.0,0.0,0.0
716,0.843860563,3.85659875,0.0,0.0,0.0,0.0
717,0.819588052,3.861829876,0.0,0.0,0.0,0.0
718,0.79528312,3.866908238,0.0,0.0,0.0,0.0
719,0.770946729,3.871833636,0.0,0.0,0.0,0.0
720,0.746579841,3.876605874,0.0,0.0,0.0,0.0
721,0.722183421,3.881224764,0.0,0.0,0.0,0.0
722,0.697758432,3.885690123,0.0,0.0,0.0,0.0
723,0.673305843,3.890001775,0.0,0.0,0.0,0.0
724,0.648826619,3.894159548,0.0,0.0,0.0,0.0
725,0.624321729,3.898163278,0.0,0.0,0.0,0.0
726,0.599792143,3.902012808,0.0,0.0,0.0,0.0
727,0.575238831,3.905707984,0.0,0.0,0.0,0.0
728,0.550662763,3.90924866,0.0,0.0,0.0,0.0
729,0.526064913,3.912634697,0.0,0.0,0.0,0.0
730,0.501446253,3.915865961,0.0,0.0,0.0,0.0
731,0.476807757,3.918942323,0.0,0.0,0.0,0.0
732,0.4521504,3.921863662,0.0,0.0,0.0,0.0
733,0.427475157,3.924629862,0.0,0.0,0.0,0.0
734,0.402783005,3.927240815,0.0,0.0,0.0,0.0
735,0.378074919,3.929696416,0.0,0.0,0.0,0.0
736,0.353351878,3.931996569,0.0,0.0,0.0,0.0
737,0.328614859,3.934141182,0.0,0.0,0.0,0.0
738,0.30386484,3.936130171,0.0,0.0,0.0,0.0
739,0.279102802,3.937963457,0.0,0.0,0.0,0.0
740,0.254329723,3.939640968,0.0,0.0,0.0,0.0
741,0.229546584,3.941162637,0.0,0.0,0.0,0.0
742,0.204754364,3.942528404,0.0,0.0,0.0,0.0
743,0.179954045,3.943738215,0.0,0.0,0.0,0.0
744,0.155146607,3.944792022,0.0,0.0,0.0,0.0
745,0.130333032,3.945689783,0.0,0.0,0.0,0.0
746,0.105514301,3.946431464,0.0,0.0,0.0,0.0
747,0.080691397,3.947017034,0.0,0.0,0.0,0.0
748,0.055865301,3.94744647,0.0,0.0,0.0,0.0
749,0.031036994,3.947719756,0.0,0.0,0.0,0.0
750,0.00620746,3.94783688,0.0,0.0,0.0,0.0
751,-0.018622319,3.947797839,0.0,0.0,0.0,0.0
752,-0.043451362,3.947602633,0.0,0.0,0.0,0.0
753,-0.068278686,3.94725127,0.0,0.0,0.0,0.0
754,-0.09310331,3.946743764,0.0,0.0,0.0,0.0
755,-0.11792425,3.946080136,0.0,0.0,0.0,0.0
756,-0.142740525,3.945260411,0.0,0.0,0.0,0.0
757,-0.167551154,3.944284622,0.0,0.0,0.0,0.0
758,-0.192355156,3.943152807,0.0,0.0,0.0,0.0
759,-0.217151548,3.941865012,0.0,0.0,0.0,0.0
760,-0.24193935,3.940421287,0.0,0.0,0.0,0.0
761,-0.266717581,3.938821689,0.0,0.0,0.0,0.0
762,-0.291485262,3.937066282,0.0,0.0,0.0,0.0
763,-0.316241413,3.935155135,0.0,0.0,0.0,0.0
764,-0.340985054,3.933088323,0.0,0.0,0.0,0.0
765,-0.365715207,3.930865929,0.0,0.0,0.0,0.0
766,-0.390430892,3.92848804,0.0,0.0,0.0,0.0
767,-0.415131134,3.925954751,0.0,0.0,0.0,0.0
768,-0.439814954,3.923266161,0.0,0.0,0.0,0.0
769,-0.464481376,3.920422377,0.0,0.0,0.0,0.0
770,-0.489129424,3.917423512,0.0,0.0,0.0,0.0
771,-0.513758123,3.914269684,0.0,0.0,0.0,0.0
772,-0.5383665,3.910961017,0.0,0.0,0.0,0.0
773,-0.56295358,3.907497643,0.0,0.0,0.0,0.0
774,-0.587518392,3.903879699,0.0,0.0,0.0,0.0
775,-0.612059963,3.900107328,0.0,0.0,0.0,0.0
776,-0.636577322,3.896180678,0.0,0.0,0.0,0.0
777,-0.6610695,3.892099906,0.0,0.0,0.0,0.0
778,-0.685535527,3.887865173,0.0,0.0,0.0,0.0
779,-0.709974437,3.883476647,0.0,0.0,0.0,0.0
780,-0.734385262,3.8789345,0.0,0.0,0.0,0.0
781,-0.758767037,3.874238912,0.0,0.0,0.0,0.0
782,-0.783118797,3.86939007,0.0,0.0,0.0,0.0
783,-0.807439579,3.864388165,0.0,0.0,0.0,0.0
784,-0.83172842,3.859233395,0.0,0.0,0.0,0.0
785,-0.855984361,3.853925964,0.0,0.0,0.0,0.0
786,-0.880206441,3.848466082,0.0,0.0,0.0,0.0
787,-0.904393702,3.842853965,0.0,0.0,0.0,0.0
788,-0.928545188,3.837089835,0.0,0.0,0.0,0.0
789,-0.952659944,3.831173919,0.0,0.0,0.0,0.0
790,-0.976737014,3.825106452,0.0,0.0,0.0,0.0
791,-1.000775448,3.818887674,0.0,0.0,0.0,0.0
792,-1.024774293,3.812517831,0.0,0.0,0.0,0.0
793,-1.048732601,3.805997175,0.0,0.0,0.0,0.0
794,-1.072649424,3.799325964,0.0,0.0,0.0,0.0
795,-1.096523815,3.792504461,0.0,0.0,0.0,0.0
796,-1.120354832,3.785532937,0.0,0.0,0.0,0.0
797,-1.144141529,3.778411667,0.0,0.0,0.0,0.0
798,-1.167882968,3.771140933,0.0,0.0,0.0,0.0
799,-1.191578208,3.763721023,0.0,0.0,0.0,0.0
800,-1.215226313,3.75615223,0.0,0.0,0.0,0.0
801,-1.238826346,3.748434853,0.0,0.0,0.0,0.0
802,-1.262377375,3.740569199,0.0,0.0,0.0,0.0
803,-1.285878467,3.732555577,0.0,0.0,0.0,0.0
804,-1.309328694,3.724394305,0.0,0.0,0.0,0.0
805,-1.332727127,3.716085706,0.0,0.0,0.0,0.0
806,-1.35607284,3.707630108,0.0,0.0,0.0,0.0
807,-1.379364911,3.699027846,0.0,0.0,0.0,0.0
808,-1.402602418,3.690279261,0.0,0.0,0.0,0.0
809,-1.425784442,3.681384697,0.0,0.0,0.0,0.0
810,-1.448910065,3.672344508,0.0,0.0,0.0,0.0
811,-1.471978374,3.663159051,0.0,0.0,0.0,0.0
812,-1.494988454,3.653828689,0.0,0.0,0.0,0.0
813,-1.517939397,3.644353791,0.0,0.0,0.0,0.0
814,-1.540830295,3.634734731,0.0,0.0,0.0,0.0
815,-1.563660241,3.624971892,0.0,0.0,0.0,0.0
816,-1.586428333,3.615065658,0.0,0.0,0.0,0.0
817,-1.60913367,3.605016421,0.0,0.0,0.0,0.0
818,-1.631775353,3.59482458,0.0,0.0,0.0,0.0
819,-1.654352489,3.584490537,0.0,0.0,0.0,0.0
820,-1.676864182,3.574014701,0.0,0.0,0.0,0.0
821,-1.699309543,3.563397486,0.0,0.0,0.0,0.0
822,-1.721687684,3.552639313,0.0,0.0,0.0,0.0
823,-1.743997719,3.541740606,0.0,0.0,0.0,0.0
824,-1.766238766,3.530701798,0.0,0.0,0.0,0.0
825,-1.788409946,3.519523324,0.0,0.0,0.0,0.0
826,-1.810510381,3.508205628,0.0,0.0,0.0,0.0
827,-1.832539197,3.496749156,0.0,0.0,0.0,0.0
828,-1.854495522,3.485154362,0.0,0.0,0.0,0.0
829,-1.876378489,3.473421704,0.0,0.0,0.0,0.0
830,-1.89818723,3.461551647,0.0,0.0,0.0,0.0
831,-1.919920885,3.44954466,0.0,0.0,0.0,0.0
832,-1.941578593,3.437401218,0.0,0.0,0.0,0.0
833,-1.963159497,3.425121802,0.0,0.0,0.0,0.0
834,-1.984662743,3.412706897,0.0,0.0,0.0,0.0
835,-2.006087481,3.400156994,0.0,0.0,0.0,0.0
836,-2.027432864,3.38747259,0.0,0.0,0.0,0.0
837,-2.048698047,3.374654186,0.0,0.0,0.0,0.0
838,-2.069882189,3.36170229,0.0,0.0,0.0,0.0
839,-2.090984452,3.348617414,0.0,0.0,0.0,0.0
840,-2.112004001,3.335400076,0.0,0.0,0.0,0.0
841,-2.132940005,3.322050797,0.0,0.0,0.0,0.0
842,-2.153791635,3.308570108,0.0,0.0,0.0,0.0
843,-2.174558067,3.29495854,0.0,0.0,0.0,0.0
844,-2.195238479,3.281216632,0.0,0.0,0.0,0.0
845,-2.215832053,3.267344928,0.0,0.0,0.0,0.0
846,-2.236337975,3.253343976,0.0,0.0,0.0,0.0
847,-2.256755433,3.239214331,0.0,0.0,0.0,0.0
848,-2.27708362,3.22495655,0.0,0.0,0.0,0.0
849,-2.297321732,3.210571199,0.0,0.0,0.0,0.0
850,-2.317468967,3.196058847,0.0,0.0,0.0,0.0
851,-2.33752453,3.181420066,0.0,0.0,0.0,0.0
852,-2.357487626,3.166655437,0.0,0.0,0.0,0.0
853,-2.377357466,3.151765544,0.0,0.0,0.0,0.0
854,-2.397133264,3.136750975,0.0,0.0,0.0,0.0
855,-2.416814238,3.121612324,0.0,0.0,0.0,0.0
856,-2.436399609,3.106350191,0.0,0.0,0.0,0.0
857,-2.455888603,3.090965179,0.0,0.0,0.0,0.0
858,-2.475280448,3.075457896,0.0,0.0,0.0,0.0
859,-2.494574378,3.059828956,0.0,0.0,0.0,0.0
860,-2.513769629,3.044078977,0.0,0.0,0.0,0.0
861,-2.532865441,3.028208583,0.0,0.0,0.0,0.0
862,-2.55186106,3.012218401,0.0,0.0,0.0,0.0
863,-2.570755735,2.996109063,0.0,0.0,0.0,0.0
864,-2.589548717,2.979881207,0.0,0.0,0.0,0.0
865,-2.608239263,2.963535475,0.0,0.0,0.0,0.0
866,-2.626826634,2.947072513,0.0,0.0,0.0,0.0
867,-2.645310095,2.930492973,0.0,0.0,0.0,0.0
868,-2.663688915,2.91379751,0.0,0.0,0.0,0.0
869,-2.681962365,2.896986786,0.0,0.0,0.0,0.0
870,-2.700129725,2.880061464,0.0,0.0,0.0,0.0
871,-2.718190274,2.863022214,0.0,0.0,0.0,0.0
872,-2.7361433,2.845869711,0.0,0.0,0.0,0.0
873,-2.75398809,2.828604632,0.0,0.0,0.0,0.0
874,-2.77172394,2.811227662,0.0,0.0,0.0,0.0
875,-2.789350148,2.793739486,0.0,0.0,0.0,0.0
876,-2.806866016,2.776140798,0.0,0.0,0.0,0.0
877,-2.824270853,2.758432293,0.0,0.0,0.0,0.0
878,-2.841563968,2.740614672,0.0,0.0,0.0,0.0
879,-2.858744679,2.722688639,0.0,0.0,0.0,0.0
880,-2.875812306,2.704654904,0.0,0.0,0.0,0.0
881,-2.892766172,2.68651418,0.0,0.0,0.0,0.0
882,-2.909605609,2.668267184,0.0,0.0,0.0,0.0
883,-2.92632995,2.649914639,0.0,0.0,0.0,0.0
884,-2.942938532,2.63145727,0.0,0.0,0.0,0.0
885,-2.9594307,2.612895807,0.0,0.0,0.0,0.0
886,-2.9758058,2.594230986,0.0,0.0,0.0,0.0
887,-2.992063185,2.575463543,0.0,0.0,0.0,0.0
888,-3.008202212,2.556594222,0.0,0.0,0.0,0.0
889,-3.024222243,2.537623769,0.0,0.0,0.0,0.0
890,-3.040122643,2.518552934,0.0,0.0,0.0,0.0
891,-3.055902784,2.499382471,0.0,0.0,0.0,0.0
892,-3.071562042,2.48011314,0.0,0.0,0.0,0.0
893,-3.087099797,2.460745702,0.0,0.0,0.0,0.0
894,-3.102515434,2.441280923,0.0,0.0,0.0,0.0
895,-3.117808344,2.421719574,0.0,0.0,0.0,0.0
896,-3.132977922,2.402062428,0.0,0.0,0.0,0.0
897,-3.148023567,2.382310263,0.0,0.0,0.0,0.0
898,-3.162944685,2.362463859,0.0,0.0,0.0,0.0
899,-3.177740685,2.342524003,0.0,0.0,0.0,0.0
900,-3.192410982,2.322491483,0.0,0.0,0.0,0.0
901,-3.206954995,2.302367091,0.0,0.0,0.0,0.0
902,-3.22137215,2.282151624,0.0,0.0,0.0,0.0
903,-3.235661876,2.261845881,0.0,0.0,0.0,0.0
904,-3.249823608,2.241450665,0.0,0.0,0.0,0.0
905,-3.263856785,2.220966783,0.0,0.0,0.0,0.0
906,-3.277760853,2.200395046,0.0,0.0,0.0,0.0
907,-3.291535261,2.179736266,0.0,0.0,0.0,0.0
908,-3.305179465,2.158991263,0.0,0.0,0.0,0.0
909,-3.318692924,2.138160855,0.0,0.0,0.0,0.0
910,-3.332075105,2.117245867,0.0,0.0,0.0,0.0
911,-3.345325478,2.096247126,0.0,0.0,0.0,0.0
912,-3.358443518,2.075165464,0.0,0.0,0.0,0.0
913,-3.371428707,2.054001713,0.0,0.0,0.0,0.0
914,-3.384280532,2.032756712,0.0,0.0,0.0,0.0
915,-3.396998483,2.0114313,0.0,0.0,0.0,0.0
916,-3.409582058,1.990026321,0.0,0.0,0.0,0.0
917,-3.422030758,1.968542622,0.0,0.0,0.0,0.0
918,-3.434344093,1.946981052,0.0,0.0,0.0,0.0
919,-3.446521573,1.925342466,0.0,0.0,0.0,0.0
920,-3.458562719,1.903627717,0.0,0.0,0.0,0.0
921,-3.470467053,1.881837666,0.0,0.0,0.0,0.0
922,-3.482234104,1.859973175,0.0,0.0,0.0,0.0
923,-3.493863407,1.838035108,0.0,0.0,0.0,0.0
924,-3.505354502,1.816024333,0.0,0.0,0.0,0.0
925,-3.516706935,1.793941721,0.0,0.0,0.0,0.0
926,-3.527920256,1.771788146,0.0,0.0,0.0,0.0
927,-3.538994022,1.749564483,0.0,0.0,0.0,0.0
928,-3.549927794,1.727271612,0.0,0.0,0.0,0.0
929,-3.560721141,1.704910415,0.0,0.0,0.0,0.0
930,-3.571373635,1.682481775,0.0,0.0,0.0,0.0
931,-3.581884855,1.659986582,0.0,0.0,0.0,0.0
932,-3.592254385,1.637425724,0.0,0.0,0.0,0.0
933,-3.602481815,1.614800093,0.0,0.0,0.0,0.0
934,-3.61256674,1.592110585,0.0,0.0,0.0,0.0
935,-3.622508761,1.569358098,0.0,0.0,0.0,0.0
936,-3.632307486,1.546543531,0.0,0.0,0.0,0.0
937,-3.641962526,1.523667786,0.0,0.0,0.0,0.0
938,-3.6514735,1.50073177,0.0,0.0,0.0,0.0
939,-3.660840031,1.477736388,0.0,0.0,0.0,0.0
940,-3.670061749,1.454682551,0.0,0.0,0.0,0.0
941,-3.679138289,1.431571171,0.0,0.0,0.0,0.0
942,-3.688069292,1.408403161,0.0,0.0,0.0,0.0
943,-3.696854404,1.385179439,0.0,0.0,0.0,0.0
944,-3.705493279,1.361900923,0.0,0.0,0.0,0.0
945,-3.713985574,1.338568533,0.0,0.0,0.0,0.0
946,-3.722330954,1.315183194,0.0,0.0,0.0,0.0
947,-3.730529088,1.291745829,0.0,0.0,0.0,0.0
948,-3.738579653,1.268257366,0.0,0.0,0.0,0.0
949,-3.746482329,1.244718734,0.0,0.0,0.0,0.0
950,-3.754236804,1.221130864,0.0,0.0,0.0,0.0
951,-3.761842771,1.19749469,0.0,0.0,0.0,0.0
952,-3.76929993,1.173811146,0.0,0.0,0.0,0.0
953,-3.776607985,1.150081169,0.0,0.0,0.0,0.0
954,-3.783766647,1.126305698,0.0,0.0,0.0,0.0
955,-3.790775634,1.102485673,0.0,0.0,0.0,0.0
956,-3.797634667,1.078622037,0.0,0.0,0.0,0.0
957,-3.804343477,1.054715733,0.0,0.0,0.0,0.0
958,-3.810901796,1.030767707,0.0,0.0,0.0,0.0
959,-3.817309366,1.006778907,0.0,0.0,0.0,0.0
960,-3.823565934,0.982750282,0.0,0.0,0.0,0.0
961,-3.829671251,0.958682781,0.0,0.0,0.0,0.0
962,-3.835625076,0.934577358,0.0,0.0,0.0,0.0
963,-3.841427175,0.910434965,0.0,0.0,0.0,0.0
964,-3.847077316,0.886256558,0.0,0.0,0.0,0.0
965,-3.852575278,0.862043093,0.0,0.0,0.0,0.0
966,-3.857920842,0.837795527,0.0,0.0,0.0,0.0
967,-3.863113796,0.813514821,0.0,0.0,0.0,0.0
968,-3.868153936,0.789201934,0.0,0.0,0.0,0.0
969,-3.873041062,0.764857828,0.0,0.0,0.0,0.0
970,-3.877774981,0.740483467,0.0,0.0,0.0,0.0
971,-3.882355505,0.716079814,0.0,0.0,0.0,0.0
972,-3.886782453,0.691647835,0.0,0.0,0.0,0.0
973,-3.891055651,0.667188496,0.0,0.0,0.0,0.0
974,-3.895174928,0.642702765,0.0,0.0,0.0,0.0
975,-3.899140123,0.61819161,0.0,0.0,0.0,0.0
976,-3.902951078,0.593656001,0.0,0.0,0.0,0.0
977,-3.906607643,0.569096909,0.0,0.0,0.0,0.0
978,-3.910109672,0.544515305,0.0,0.0,0.0,0.0
979,-3.913457028,0.519912161,0.0,0.0,0.0,0.0
980,-3.916649578,0.495288451,0.0,0.0,0.0,0.0
981,-3.919687195,0.470645148,0.0,0.0,0.0,0.0
982,-3.92256976,0.445983228,0.0,0.0,0.0,0.0
983,-3.925297159,0.421303666,0.0,0.0,0.0,0.0
984,-3.927869283,0.396607439,0.0,0.0,0.0,0.0
985,-3.930286031,0.371895523,0.0,0.0,0.0,0.0
986,-3.932547307,0.347168895,0.0,0.0,0.0,0.0
987,-3.934653022,0.322428534,0.0,0.0,0.0,0.0
988,-3.936603093,0.297675419,0.0,0.0,0.0,0.0
989,-3.938397442,0.272910529,0.0,0.0,0.0,0.0
990,-3.940035998,0.248134843,0.0,0.0,0.0,0.0
991,-3.941518697,0.223349342,0.0,0.0,0.0,0.0
992,-3.94284548,0.198555005,0.0,0.0,0.0,0.0
993,-3.944016294,0.173752814,0.0,0.0,0.0,0.0
994,-3.945031093,0.14894375,0.0,0.0,0.0,0.0
995,-3.945889837,0.124128794,0.0,0.0,0.0,0.0
996,-3.946592493,0.099308928,0.0,0.0,0.0,0.0
997,-3.947139031,0.074485134,0.0,0.0,0.0,0.0
998,-3.947529431,0.049658393,0.0,0.0,0.0,0.0
999,-3.947763677,0.024829687,0.0,0.0,0.0,0.0
1000,-3.94784176,9.67e-16,0.0,0.0,0.0,0.0
1001,3.94784176,-4.834711774924254e-16,0.0,0.0,0.0,0.0
1002,3.9478377494287846,0.0056272715385154845,0.0,0.0,0.0,0.0
1003,3.9478257177232865,0.01125453164366043,0.0,0.0,0.0,0.0
1004,3.9478056649079516,0.016881768882081295,0.0,0.0,0.0,0.0
1005,3.947777591023523,0.022508971820476748,0.0,0.0,0.0,0.0
1006,3.9477414961270396,0.028136129025615145,0.0,0.0,0.0,0.0
1007,3.947697380291839,0.033763229064352494,0.0,0.0,0.0,0.0
1008,3.9476452436075555,0.03939026050366624,0.0,0.0,0.0,0.0
1009,3.9475850861801183,0.04501721191067141,0.0,0.0,0.0,0.0
1010,3.947516908131755,0.05064407185264743,0.0,0.0,0.0,0.0
1011,3.9474407096009867,0.05627082889705428,0.0,0.0,0.0,0.0
1012,3.9473564907426337,0.0618974716115663,0.0,0.0,0.0,0.0
1013,3.9472642517278094,0.06752398856409006,0.0,0.0,0.0,0.0
1014,3.9471639927439224,0.07315036832278245,0.0,0.0,0.0,0.0
1015,3.9470557139946782,0.07877659945608434,0.0,0.0,0.0,0.0
1016,3.946939415700075,0.08440267053273856,0.0,0.0,0.0,0.0
1017,3.946815098096404,0.09002857012180794,0.0,0.0,0.0,0.0
1018,3.9466827614362523,0.09565428679270893,0.0,0.0,0.0,0.0
1019,3.9465424059884984,0.1012798091152279,0.0,0.0,0.0,0.0
1020,3.946394032038314,0.10690512565954784,0.0,0.0,0.0,0.0
1021,3.9462376398871615,0.1125302249962646,0.0,0.0,0.0,0.0
1022,3.946073229852796,0.11815509569642058,0.0,0.0,0.0,0.0
1023,3.945900802269261,0.1237797263315227,0.0,0.0,0.0,0.0
1024,3.9457203574868926,0.12940410547356046,0.0,0.0,0.0,0.0
1025,3.9455318958723145,0.13502822169503953,0.0,0.0,0.0,0.0
1026,3.9453354178084385,0.14065206356899976,0.0,0.0,0.0,0.0
1027,3.9451309236944656,0.14627561966903324,0.0,0.0,0.0,0.0
1028,3.944918413945881,0.15189887856931783,0.0,0.0,0.0,0.0
1029,3.944697888994459,0.15752182884463362,0.0,0.0,0.0,0.0
1030,3.9444693492882577,0.16314445907038938,0.0,0.0,0.0,0.0
1031,3.944232795291619,0.168766757822639,0.0,0.0,0.0,0.0
1032,3.943988227485168,0.174388713678115,0.0,0.0,0.0,0.0
1033,3.9437356463658126,0.1800103152142467,0.0,0.0,0.0,0.0
1034,3.9434750524467415,0.18563155100917797,0.0,0.0,0.0,0.0
1035,3.943206446257425,0.19125240964180112,0.0,0.0,0.0,0.0
1036,3.94292982834361,0.1968728796917747,0.0,0.0,0.0,0.0
1037,3.942645199267324,0.20249294973954157,0.0,0.0,0.0,0.0
1038,3.9423525596068716,0.20811260836636253,0.0,0.0,0.0,0.0
1039,3.942051909956829,0.21373184415433255,0.0,0.0,0.0,0.0
1040,3.941743250928053,0.21935064568640752,0.0,0.0,0.0,0.0
1041,3.9414265831476687,0.22496900154642027,0.0,0.0,0.0,0.0
1042,3.941101907259075,0.23058690031911455,0.0,0.0,0.0,0.0
1043,3.940769223921943,0.23620433059016263,0.0,0.0,0.0,0.0
1044,3.9404285338122107,0.24182128094618358,0.0,0.0,0.0,0.0
1045,3.940079837622085,0.24743773997477672,0.0,0.0,0.0,0.0
1046,3.939723136060039,0.2530536962645396,0.0,0.0,0.0,0.0
1047,3.939358429850814,0.25866913840508615,0.0,0.0,0.0,0.0
1048,3.9389857197354097,0.2642840549870799,0.0,0.0,0.0,0.0
1049,3.9386050064710925,0.26989843460225077,0.0,0.0,0.0,0.0
1050,3.9382162908313862,0.2755122658434212,0.0,0.0,0.0,0.0
1051,3.937819573606076,0.28112553730452267,0.0,0.0,0.0,0.0
1052,3.9374148556012045,0.28673823758062916,0.0,0.0,0.0,0.0
1053,3.9370021376390674,0.2923503552679752,0.0,0.0,0.0,0.0
1054,3.936581420558218,0.29796187896397386,0.0,0.0,0.0,0.0
1055,3.936152705213459,0.3035727972672502,0.0,0.0,0.0,0.0
1056,3.935715992475847,0.3091830987776595,0.0,0.0,0.0,0.0
1057,3.935271283232684,0.31479277209630463,0.0,0.0,0.0,0.0
1058,3.9348185783875236,0.32040180582557043,0.0,0.0,0.0,0.0
1059,3.934357878860159,0.32601018856913916,0.0,0.0,0.0,0.0
1060,3.9338891855866316,0.33161790893201776,0.0,0.0,0.0,0.0
1061,3.933412499519222,0.3372249555205536,0.0,0.0,0.0,0.0
1062,3.932927821626452,0.34283131694246827,0.0,0.0,0.0,0.0
1063,3.932435152893079,0.34843698180687543,0.0,0.0,0.0,0.0
1064,3.931934494320097,0.35404193872429895,0.0,0.0,0.0,0.0
1065,3.931425846924734,0.359646176306706,0.0,0.0,0.0,0.0
1066,3.930909211740449,0.3652496831675256,0.0,0.0,0.0,0.0
1067,3.930384589816931,0.37085244792166594,0.0,0.0,0.0,0.0
1068,3.9298519822200957,0.37645445918554843,0.0,0.0,0.0,0.0
1069,3.9293113900320833,0.3820557055771236,0.0,0.0,0.0,0.0
1070,3.9287628143512583,0.3876561757158977,0.0,0.0,0.0,0.0
1071,3.9282062562922055,0.39325585822294906,0.0,0.0,0.0,0.0
1072,3.9276417169857285,0.39885474172096147,0.0,0.0,0.0,0.0
1073,3.927069197578845,0.40445281483424206,0.0,0.0,0.0,0.0
1074,3.9264886992347887,0.41005006618873935,0.0,0.0,0.0,0.0
1075,3.9259002231330045,0.41564648441207663,0.0,0.0,0.0,0.0
1076,3.9253037704691454,0.4212420581335701,0.0,0.0,0.0,0.0
1077,3.924699342455071,0.4268367759842464,0.0,0.0,0.0,0.0
1078,3.9240869403188468,0.4324306265968764,0.0,0.0,0.0,0.0
1079,3.9234665653047376,0.43802359860599294,0.0,0.0,0.0,0.0
1080,3.9228382186732076,0.44361568064790896,0.0,0.0,0.0,0.0
1081,3.9222019017009204,0.4492068613607506,0.0,0.0,0.0,0.0
1082,3.9215576156807304,0.4547971293844737,0.0,0.0,0.0,0.0
1083,3.920905361921685,0.4603864733608902,0.0,0.0,0.0,0.0
1084,3.9202451417490183,0.4659748819336843,0.0,0.0,0.0,0.0
1085,3.9195769565041534,0.4715623437484459,0.0,0.0,0.0,0.0
1086,3.9189008075446954,0.47714884745268843,0.0,0.0,0.0,0.0
1087,3.9182166962444285,0.482734381695867,0.0,0.0,0.0,0.0
1088,3.917524623993316,0.4883189351294115,0.0,0.0,0.0,0.0
1089,3.9168245921974965,0.49390249640674294,0.0,0.0,0.0,0.0
1090,3.9161166022792786,0.49948505418329975,0.0,0.0,0.0,0.0
1091,3.9154006556771423,0.5050665971165543,0.0,0.0,0.0,0.0
1092,3.9146767538457334,0.510647113866046,0.0,0.0,0.0,0.0
1093,3.9139448982558602,0.5162265930933989,0.0,0.0,0.0,0.0
1094,3.9132050903944915,0.5218050234623406,0.0,0.0,0.0,0.0
1095,3.9124573317647533,0.5273823936387343,0.0,0.0,0.0,0.0
1096,3.9117016238859263,0.5329586922905974,0.0,0.0,0.0,0.0
1097,3.9109379682934415,0.5385339080881196,0.0,0.0,0.0,0.0
1098,3.9101663665388786,0.5441080297036954,0.0,0.0,0.0,0.0
1099,3.909386820189962,0.5496810458119427,0.0,0.0,0.0,0.0
1100,3.908599330830558,0.5552529450897202,0.0,0.0,0.0,0.0
1101,3.907803900060671,0.5608237162161614,0.0,0.0,0.0,0.0
1102,3.90700052949644,0.5663933478726896,0.0,0.0,0.0,0.0
1103,3.9061892207701367,0.5719618287430452,0.0,0.0,0.0,0.0
1104,3.905369975530162,0.5775291475133019,0.0,0.0,0.0,0.0
1105,3.9045427954410394,0.5830952928718991,0.0,0.0,0.0,0.0
1106,3.903707682183419,0.5886602535096609,0.0,0.0,0.0,0.0
1107,3.9028646374540634,0.594224018119813,0.0,0.0,0.0,0.0
1108,3.9020136629658557,0.5997865753980163,0.0,0.0,0.0,0.0
1109,3.901154760447787,0.6053479140423849,0.0,0.0,0.0,0.0
1110,3.9002879316449577,0.6109080227535036,0.0,0.0,0.0,0.0
1111,3.8994131783185724,0.6164668902344616,0.0,0.0,0.0,0.0
1112,3.8985305022459364,0.6220245051908677,0.0,0.0,0.0,0.0
1113,3.8976399052204527,0.6275808563308779,0.0,0.0,0.0,0.0
1114,3.8967413890516185,0.6331359323652105,0.0,0.0,0.0,0.0
1115,3.8958349555650185,0.6386897220071797,0.0,0.0,0.0,0.0
1116,3.8949206066023265,0.6442422139727135,0.0,0.0,0.0,0.0
1117,3.8939983440212975,0.6497933969803711,0.0,0.0,0.0,0.0
1118,3.8930681696957654,0.6553432597513767,0.0,0.0,0.0,0.0
1119,3.892130085515639,0.6608917910096368,0.0,0.0,0.0,0.0
1120,3.8911840933868977,0.6664389794817579,0.0,0.0,0.0,0.0
1121,3.8902301952315885,0.6719848138970801,0.0,0.0,0.0,0.0
1122,3.8892683929878227,0.6775292829876928,0.0,0.0,0.0,0.0
1123,3.888298688609769,0.6830723754884613,0.0,0.0,0.0,0.0
1124,3.887321084067653,0.6886140801370426,0.0,0.0,0.0,0.0
1125,3.886335581347751,0.6941543856739186,0.0,0.0,0.0,0.0
1126,3.885342182452387,0.6996932808424142,0.0,0.0,0.0,0.0
1127,3.8843408893999283,0.7052307543887141,0.0,0.0,0.0,0.0
1128,3.883331704224781,0.710766795061897,0.0,0.0,0.0,0.0
1129,3.8823146289773858,0.7163013916139529,0.0,0.0,0.0,0.0
1130,3.8812896657242155,0.7218345327998006,0.0,0.0,0.0,0.0
1131,3.88025681654777,0.7273662073773213,0.0,0.0,0.0,0.0
1132,3.879216083546569,0.732896404107374,0.0,0.0,0.0,0.0
1133,3.878167468835153,0.7384251117538221,0.0,0.0,0.0,0.0
1134,3.8771109745440753,0.7439523190835496,0.0,0.0,0.0,0.0
1135,3.876046602819899,0.7494780148664938,0.0,0.0,0.0,0.0
1136,3.874974355825192,0.7550021878756632,0.0,0.0,0.0,0.0
1137,3.8738942357385246,0.760524826887155,0.0,0.0,0.0,0.0
1138,3.87280624475446,0.766045920680188,0.0,0.0,0.0,0.0
1139,3.8717103850835572,0.7715654580371213,0.0,0.0,0.0,0.0
1140,3.870606658952361,0.7770834277434705,0.0,0.0,0.0,0.0
1141,3.8694950686033986,0.7825998185879419,0.0,0.0,0.0,0.0
1142,3.8683756162951766,0.7881146193624476,0.0,0.0,0.0,0.0
1143,3.8672483043021737,0.7936278188621323,0.0,0.0,0.0,0.0
1144,3.866113134914839,0.7991394058853892,0.0,0.0,0.0,0.0
1145,3.864970110439588,0.8046493692338925,0.0,0.0,0.0,0.0
1146,3.8638192331987917,0.8101576977126154,0.0,0.0,0.0,0.0
1147,3.862660505530779,0.8156643801298478,0.0,0.0,0.0,0.0
1148,3.861493929789829,0.8211694052972289,0.0,0.0,0.0,0.0
1149,3.8603195083461657,0.8266727620297655,0.0,0.0,0.0,0.0
1150,3.8591372435859537,0.8321744391458489,0.0,0.0,0.0,0.0
1151,3.857947137911295,0.837674425467288,0.0,0.0,0.0,0.0
1152,3.85674919374022,0.8431727098193273,0.0,0.0,0.0,0.0
1153,3.855543413506687,0.8486692810306641,0.0,0.0,0.0,0.0
1154,3.8543297996605763,0.8541641279334814,0.0,0.0,0.0,0.0
1155,3.853108354667682,0.859657239363464,0.0,0.0,0.0,0.0
1156,3.85187908100971,0.8651486041598248,0.0,0.0,0.0,0.0
1157,3.8506419811842743,0.8706382111653198,0.0,0.0,0.0,0.0
1158,3.849397057704888,0.8761260492262821,0.0,0.0,0.0,0.0
1159,3.84814431310096,0.8816121071926384,0.0,0.0,0.0,0.0
1160,3.8468837499177915,0.8870963739179275,0.0,0.0,0.0,0.0
1161,3.8456153707165677,0.8925788382593325,0.0,0.0,0.0,0.0
1162,3.844339178074356,0.8980594890776967,0.0,0.0,0.0,0.0
1163,3.8430551745840953,0.9035383152375501,0.0,0.0,0.0,0.0
1164,3.8417633628546004,0.9090153056071246,0.0,0.0,0.0,0.0
1165,3.840463745510546,0.9144904490583874,0.0,0.0,0.0,0.0
1166,3.8391563251924667,0.9199637344670581,0.0,0.0,0.0,0.0
1167,3.837841104556754,0.9254351507126263,0.0,0.0,0.0,0.0
1168,3.8365180862756434,0.9309046866783842,0.0,0.0,0.0,0.0
1169,3.8351872730372163,0.936372331251445,0.0,0.0,0.0,0.0
1170,3.833848667545392,0.9418380733227589,0.0,0.0,0.0,0.0
1171,3.8325022725199207,0.9473019017871473,0.0,0.0,0.0,0.0
1172,3.83114809069638,0.9527638055433192,0.0,0.0,0.0,0.0
1173,3.829786124826168,0.9582237734938892,0.0,0.0,0.0,0.0
1174,3.828416377676499,0.9636817945454101,0.0,0.0,0.0,0.0
1175,3.8270388520303955,0.9691378576083889,0.0,0.0,0.0,0.0
1176,3.825653550686685,0.9745919515973123,0.0,0.0,0.0,0.0
1177,3.8242604764599966,0.9800440654306625,0.0,0.0,0.0,0.0
1178,3.822859632180748,0.9854941880309502,0.0,0.0,0.0,0.0
1179,3.821451020695144,0.9909423083247322,0.0,0.0,0.0,0.0
1180,3.8200346448651734,0.9963884152426277,0.0,0.0,0.0,0.0
1181,3.8186105075685983,1.001832497719352,0.0,0.0,0.0,0.0
1182,3.8171786116989517,1.0072745446937323,0.0,0.0,0.0,0.0
1183,3.81573896016553,1.0127145451087332,0.0,0.0,0.0,0.0
1184,3.814291555893386,1.0181524879114714,0.0,0.0,0.0,0.0
1185,3.812836401823326,1.0235883620532504,0.0,0.0,0.0,0.0
1186,3.8113735009119014,1.0290221564895763,0.0,0.0,0.0,0.0
1187,3.809902856131405,1.0344538601801758,0.0,0.0,0.0,0.0
1188,3.808424470469861,1.0398834620890283,0.0,0.0,0.0,0.0
1189,3.8069383469310223,1.0453109511843837,0.0,0.0,0.0,0.0
1190,3.805444488534364,1.0507363164387797,0.0,0.0,0.0,0.0
1191,3.8039428983150767,1.0561595468290743,0.0,0.0,0.0,0.0
1192,3.80243357932406,1.0615806313364629,0.0,0.0,0.0,0.0
1193,3.800916534627916,1.0669995589464956,0.0,0.0,0.0,0.0
1194,3.7993917673089457,1.0724163186491107,0.0,0.0,0.0,0.0
1195,3.7978592804651385,1.077830899438648,0.0,0.0,0.0,0.0
1196,3.7963190772101685,1.0832432903138784,0.0,0.0,0.0,0.0
1197,3.7947711606733905,1.0886534802780146,0.0,0.0,0.0,0.0
1198,3.793215533999827,1.094061458338748,0.0,0.0,0.0,0.0
1199,3.791652200350169,1.0994672135082633,0.0,0.0,0.0,0.0
1200,3.7900811629007656,1.1048707348032563,0.0,0.0,0.0,0.0
1201,3.788502424843616,1.110272011244967,0.0,0.0,0.0,0.0
1202,3.7869159893863693,1.1156710318591956,0.0,0.0,0.0,0.0
1203,3.785321859752309,1.1210677856763254,0.0,0.0,0.0,0.0
1204,3.7837200391803587,1.126462261731342,0.0,0.0,0.0,0.0
1205,3.78211053092506,1.131854449063865,0.0,0.0,0.0,0.0
1206,3.7804933382565804,1.137244336718157,0.0,0.0,0.0,0.0
1207,3.7788684644606976,1.1426319137431586,0.0,0.0,0.0,0.0
1208,3.7772359128387962,1.1480171691925036,0.0,0.0,0.0,0.0
1209,3.77559568670786,1.1534000921245442,0.0,0.0,0.0,0.0
1210,3.773947789400467,1.1587806716023663,0.0,0.0,0.0,0.0
1211,3.7722922242647807,1.1641588966938228,0.0,0.0,0.0,0.0
1212,3.770628994664542,1.16953475647155,0.0,0.0,0.0,0.0
1213,3.768958103979068,1.1749082400129847,0.0,0.0,0.0,0.0
1214,3.7672795556032392,1.180279336400397,0.0,0.0,0.0,0.0
1215,3.7655933529474943,1.185648034720906,0.0,0.0,0.0,0.0
1216,3.7638994994378256,1.1910143240665034,0.0,0.0,0.0,0.0
1217,3.7621979985157683,1.1963781935340718,0.0,0.0,0.0,0.0
1218,3.7604888536383974,1.2017396322254148,0.0,0.0,0.0,0.0
1219,3.758772068278317,1.207098629247275,0.0,0.0,0.0,0.0
1220,3.7570476459236555,1.2124551737113505,0.0,0.0,0.0,0.0
1221,3.7553155900780593,1.2178092547343282,0.0,0.0,0.0,0.0
1222,3.753575904260682,1.2231608614378995,0.0,0.0,0.0,0.0
1223,3.7518285920061825,1.2285099829487787,0.0,0.0,0.0,0.0
1224,3.7500736568647124,1.2338566083987335,0.0,0.0,0.0,0.0
1225,3.7483111024019116,1.2392007269246041,0.0,0.0,0.0,0.0
1226,3.746540932198903,1.244542327668319,0.0,0.0,0.0,0.0
1227,3.74476314985228,1.2498813997769265,0.0,0.0,0.0,0.0
1228,3.742977758974105,1.2552179324026116,0.0,0.0,0.0,0.0
1229,3.741184763191897,1.2605519147027204,0.0,0.0,0.0,0.0
1230,3.739384166148627,1.265883335839776,0.0,0.0,0.0,0.0
1231,3.7375759715027113,1.2712121849815097,0.0,0.0,0.0,0.0
1232,3.7357601829280016,1.2765384513008788,0.0,0.0,0.0,0.0
1233,3.7339368041137795,1.2818621239760835,0.0,0.0,0.0,0.0
1234,3.7321058387647477,1.2871831921905983,0.0,0.0,0.0,0.0
1235,3.7302672906010237,1.2925016451331879,0.0,0.0,0.0,0.0
1236,3.7284211633581306,1.2978174719979323,0.0,0.0,0.0,0.0
1237,3.7265674607869923,1.3031306619842427,0.0,0.0,0.0,0.0
1238,3.7247061866539224,1.3084412042968918,0.0,0.0,0.0,0.0
1239,3.722837344740617,1.3137490881460325,0.0,0.0,0.0,0.0
1240,3.7209609388441534,1.319054302747214,0.0,0.0,0.0,0.0
1241,3.7190769727769717,1.3243568373214134,0.0,0.0,0.0,0.0
1242,3.7171854503668746,1.3296566810950539,0.0,0.0,0.0,0.0
1243,3.7152863754570196,1.3349538233000198,0.0,0.0,0.0,0.0
1244,3.713379751905906,1.3402482531736903,0.0,0.0,0.0,0.0
1245,3.711465583587372,1.3455399599589548,0.0,0.0,0.0,0.0
1246,3.7095438743905857,1.3508289329042305,0.0,0.0,0.0,0.0
1247,3.7076146282200346,1.3561151612634945,0.0,0.0,0.0,0.0
1248,3.705677848995521,1.3613986342962985,0.0,0.0,0.0,0.0
1249,3.7037335406521525,1.3666793412677938,0.0,0.0,0.0,0.0
1250,3.7017817071403343,1.3719572714487471,0.0,0.0,0.0,0.0
1251,3.699822352425761,1.3772324141155716,0.0,0.0,0.0,0.0
1252,3.6978554804894084,1.3825047585503447,0.0,0.0,0.0,0.0
1253,3.6958810953275263,1.3877742940408233,0.0,0.0,0.0,0.0
1254,3.6938992009516287,1.3930410098804769,0.0,0.0,0.0,0.0
1255,3.6919098013884875,1.3983048953685024,0.0,0.0,0.0,0.0
1256,3.6899129006801226,1.403565939809849,0.0,0.0,0.0,0.0
1257,3.6879085028837957,1.408824132515233,0.0,0.0,0.0,0.0
1258,3.6858966120720003,1.4140794628011701,0.0,0.0,0.0,0.0
1259,3.683877232332454,1.4193319199899919,0.0,0.0,0.0,0.0
1260,3.6818503677680914,1.4245814934098615,0.0,0.0,0.0,0.0
1261,3.679816022497052,1.4298281723948074,0.0,0.0,0.0,0.0
1262,3.677774200652676,1.4350719462847386,0.0,0.0,0.0,0.0
1263,3.675724906383496,1.4403128044254612,0.0,0.0,0.0,0.0
1264,3.6736681438532246,1.4455507361687112,0.0,0.0,0.0,0.0
1265,3.671603917240748,1.4507857308721692,0.0,0.0,0.0,0.0
1266,3.6695322307401197,1.4560177778994798,0.0,0.0,0.0,0.0
1267,3.667453088560549,1.4612468666202805,0.0,0.0,0.0,0.0
1268,3.6653664949263933,1.4664729864102177,0.0,0.0,0.0,0.0
1269,3.6632724540771497,1.4716961266509725,0.0,0.0,0.0,0.0
1270,3.661170970267447,1.4769162767302741,0.0,0.0,0.0,0.0
1271,3.6590620477670366,1.4821334260419323,0.0,0.0,0.0,0.0
1272,3.6569456908607822,1.4873475639858538,0.0,0.0,0.0,0.0
1273,3.6548219038486547,1.4925586799680586,0.0,0.0,0.0,0.0
1274,3.652690691045719,1.497766763400712,0.0,0.0,0.0,0.0
1275,3.65055205678213,1.5029718037021385,0.0,0.0,0.0,0.0
1276,3.648406005403118,1.5081737902968477,0.0,0.0,0.0,0.0
1277,3.646252541268988,1.5133727126155487,0.0,0.0,0.0,0.0
1278,3.644091668755101,1.518568560095183,0.0,0.0,0.0,0.0
1279,3.6419233922518752,1.5237613221789332,0.0,0.0,0.0,0.0
1280,3.639747716164768,1.5289509883162549,0.0,0.0,0.0,0.0
1281,3.637564644914273,1.534137547962893,0.0,0.0,0.0,0.0
1282,3.6353741829359074,1.5393209905809055,0.0,0.0,0.0,0.0
1283,3.633176334680208,1.544501305638679,0.0,0.0,0.0,0.0
1284,3.630971104612717,1.5496784826109586,0.0,0.0,0.0,0.0
1285,3.628758497213973,1.5548525109788667,0.0,0.0,0.0,0.0
1286,3.6265385169795072,1.5600233802299166,0.0,0.0,0.0,0.0
1287,3.624311168419828,1.5651910798580462,0.0,0.0,0.0,0.0
1288,3.622076456060417,1.570355599363631,0.0,0.0,0.0,0.0
1289,3.6198343844417136,1.57551692825351,0.0,0.0,0.0,0.0
1290,3.617584958119115,1.5806750560409997,0.0,0.0,0.0,0.0
1291,3.615328181662957,1.5858299722459255,0.0,0.0,0.0,0.0
1292,3.613064059658511,1.5909816663946377,0.0,0.0,0.0,0.0
1293,3.610792596705973,1.5961301280200284,0.0,0.0,0.0,0.0
1294,3.6085137974204544,1.6012753466615628,0.0,0.0,0.0,0.0
1295,3.6062276664319706,1.6064173118652945,0.0,0.0,0.0,0.0
1296,3.6039342083854367,1.6115560131838829,0.0,0.0,0.0,0.0
1297,3.601633427940652,1.6166914401766235,0.0,0.0,0.0,0.0
1298,3.599325329772293,1.6218235824094647,0.0,0.0,0.0,0.0
1299,3.597009918569907,1.626952429455024,0.0,0.0,0.0,0.0
1300,3.5946871990378986,1.632077970892618,0.0,0.0,0.0,0.0
1301,3.592357175895519,1.6372001963082796,0.0,0.0,0.0,0.0
1302,3.59001985387686,1.6423190952947793,0.0,0.0,0.0,0.0
1303,3.5876752377308465,1.6474346574516419,0.0,0.0,0.0,0.0
1304,3.5853233322212192,1.6525468723851768,0.0,0.0,0.0,0.0
1305,3.5829641421265293,1.657655729708494,0.0,0.0,0.0,0.0
1306,3.580597672240132,1.6627612190415206,0.0,0.0,0.0,0.0
1307,3.578223927370171,1.6678633300110315,0.0,0.0,0.0,0.0
1308,3.57584291233957,1.6729620522506647,0.0,0.0,0.0,0.0
1309,3.573454631986027,1.678057375400944,0.0,0.0,0.0,0.0
1310,3.571059091162,1.6831492891092952,0.0,0.0,0.0,0.0
1311,3.5686562947346987,1.6882377830300757,0.0,0.0,0.0,0.0
1312,3.5662462475860743,1.693322846824592,0.0,0.0,0.0,0.0
1313,3.563828954612811,1.6984044701611138,0.0,0.0,0.0,0.0
1314,3.561404420726314,1.7034826427149075,0.0,0.0,0.0,0.0
1315,3.558972650852699,1.7085573541682488,0.0,0.0,0.0,0.0
1316,3.556533649932788,1.7136285942104421,0.0,0.0,0.0,0.0
1317,3.5540874229220907,1.7186963525378496,0.0,0.0,0.0,0.0
1318,3.551633974790799,1.7237606188539072,0.0,0.0,0.0,0.0
1319,3.5491733105237797,1.728821382869141,0.0,0.0,0.0,0.0
1320,3.546705435120558,1.7338786343011983,0.0,0.0,0.0,0.0
1321,3.544230353595312,1.7389323628748614,0.0,0.0,0.0,0.0
1322,3.5417480709768583,1.7439825583220712,0.0,0.0,0.0,0.0
1323,3.5392585923086504,1.7490292103819434,0.0,0.0,0.0,0.0
1324,3.5367619226487577,1.754072308800797,0.0,0.0,0.0,0.0
1325,3.5342580670698607,1.7591118433321715,0.0,0.0,0.0,0.0
1326,3.5317470306592416,1.764147803736843,0.0,0.0,0.0,0.0
1327,3.5292288185187717,1.769180179782854,0.0,0.0,0.0,0.0
1328,3.5267034357649014,1.7742089612455276,0.0,0.0,0.0,0.0
1329,3.524170887528651,1.7792341379074923,0.0,0.0,0.0,0.0
1330,3.5216311789555994,1.784255699558696,0.0,0.0,0.0,0.0
1331,3.519084315205873,1.7892736359964365,0.0,0.0,0.0,0.0
1332,3.516530301454136,1.7942879370253768,0.0,0.0,0.0,0.0
1333,3.5139691428895805,1.7992985924575613,0.0,0.0,0.0,0.0
1334,3.511400844715916,1.8043055921124467,0.0,0.0,0.0,0.0
1335,3.508825412151355,1.8093089258169175,0.0,0.0,0.0,0.0
1336,3.50624285042861,1.8143085834053014,0.0,0.0,0.0,0.0
1337,3.5036531647948745,1.8193045547194002,0.0,0.0,0.0,0.0
1338,3.5010563605118175,1.8242968296085051,0.0,0.0,0.0,0.0
1339,3.4984524428555726,1.8292853979294135,0.0,0.0,0.0,0.0
1340,3.495841417116725,1.8342702495464578,0.0,0.0,0.0,0.0
1341,3.493223288600302,1.8392513743315206,0.0,0.0,0.0,0.0
1342,3.490598062625762,1.844228762164058,0.0,0.0,0.0,0.0
1343,3.487965744526985,1.8492024029311147,0.0,0.0,0.0,0.0
1344,3.4853263396522607,1.8541722865273524,0.0,0.0,0.0,0.0
1345,3.4826798533642744,1.859138402855067,0.0,0.0,0.0,0.0
1346,3.4800262910401045,1.8641007418242044,0.0,0.0,0.0,0.0
1347,3.4773656580712022,1.869059293352389,0.0,0.0,0.0,0.0
1348,3.4746979598633856,1.8740140473649396,0.0,0.0,0.0,0.0
1349,3.4720232018368278,1.8789649937948918,0.0,0.0,0.0,0.0
1350,3.469341389426048,1.8839121225830133,0.0,0.0,0.0,0.0
1351,3.466652528079895,1.888855423677834,0.0,0.0,0.0,0.0
1352,3.4639566232615424,1.8937948870356551,0.0,0.0,0.0,0.0
1353,3.4612536804484724,1.8987305026205796,0.0,0.0,0.0,0.0
1354,3.4585437051324686,1.9036622604045266,0.0,0.0,0.0,0.0
1355,3.455826702819601,1.9085901503672555,0.0,0.0,0.0,0.0
1356,3.4531026790302195,1.9135141624963792,0.0,0.0,0.0,0.0
1357,3.450371639298938,1.918434286787394,0.0,0.0,0.0,0.0
1358,3.447633589174625,1.923350513243696,0.0,0.0,0.0,0.0
1359,3.4448885342203956,1.928262831876596,0.0,0.0,0.0,0.0
1360,3.4421364800135947,1.9331712327053487,0.0,0.0,0.0,0.0
1361,3.4393774321457875,1.9380757057571683,0.0,0.0,0.0,0.0
1362,3.43661139622275,1.9429762410672498,0.0,0.0,0.0,0.0
1363,3.433838377864457,1.9478728286787852,0.0,0.0,0.0,0.0
1364,3.4310583827050687,1.952765458642992,0.0,0.0,0.0,0.0
1365,3.428271416392921,1.9576541210191276,0.0,0.0,0.0,0.0
1366,3.4254774845905147,1.9625388058745075,0.0,0.0,0.0,0.0
1367,3.4226765929745016,1.9674195032845323,0.0,0.0,0.0,0.0
1368,3.419868747235675,1.9722962033327027,0.0,0.0,0.0,0.0
1369,3.417053953078956,1.977168896110643,0.0,0.0,0.0,0.0
1370,3.414232216223386,1.982037571718115,0.0,0.0,0.0,0.0
1371,3.41140354240211,1.9869022202630484,0.0,0.0,0.0,0.0
1372,3.40856793736237,1.9917628318615483,0.0,0.0,0.0,0.0
1373,3.4057254068654883,1.9966193966379278,0.0,0.0,0.0,0.0
1374,3.402875956686858,2.0014719047247196,0.0,0.0,0.0,0.0
1375,3.400019592615933,2.006320346262701,0.0,0.0,0.0,0.0
1376,3.3971563204562147,2.011164711400906,0.0,0.0,0.0,0.0
1377,3.3942861460252396,2.0160049902966564,0.0,0.0,0.0,0.0
1378,3.391409075154567,2.020841173115577,0.0,0.0,0.0,0.0
1379,3.3885251136897714,2.0256732500316086,0.0,0.0,0.0,0.0
1380,3.385634267490424,2.03050121122704,0.0,0.0,0.0,0.0
1381,3.382736542430086,2.035325046892521,0.0,0.0,0.0,0.0
1382,3.3798319443962943,2.040144747227084,0.0,0.0,0.0,0.0
1383,3.376920479290552,2.044960302438159,0.0,0.0,0.0,0.0
1384,3.374002153028311,2.049771702741606,0.0,0.0,0.0,0.0
1385,3.371076971538967,2.054578938361718,0.0,0.0,0.0,0.0
1386,3.368144940765843,2.059381999531256,0.0,0.0,0.0,0.0
1387,3.3652060666661767,2.064180876491461,0.0,0.0,0.0,0.0
1388,3.362260355211112,2.0689755594920745,0.0,0.0,0.0,0.0
1389,3.359307812385683,2.0737660387913617,0.0,0.0,0.0,0.0
1390,3.3563484441888054,2.0785523046561236,0.0,0.0,0.0,0.0
1391,3.3533822566332607,2.083334347361728,0.0,0.0,0.0,0.0
1392,3.3504092557456886,2.0881121571921177,0.0,0.0,0.0,0.0
1393,3.3474294475665687,2.0928857244398396,0.0,0.0,0.0,0.0
1394,3.344442838150214,2.0976550394060602,0.0,0.0,0.0,0.0
1395,3.3414494335647533,2.102420092400586,0.0,0.0,0.0,0.0
1396,3.338449239892126,2.107180873741878,0.0,0.0,0.0,0.0
1397,3.3354422632280616,2.1119373737570832,0.0,0.0,0.0,0.0
1398,3.3324285096820714,2.116689582782045,0.0,0.0,0.0,0.0
1399,3.3294079853774394,2.121437491161321,0.0,0.0,0.0,0.0
1400,3.3263806964512024,2.126181089248212,0.0,0.0,0.0,0.0
1401,3.323346649054143,2.1309203674047743,0.0,0.0,0.0,0.0
1402,3.320305849350774,2.135655316001843,0.0,0.0,0.0,0.0
1403,3.3172583035193313,2.140385925419046,0.0,0.0,0.0,0.0
1404,3.314204017751752,2.1451121860448326,0.0,0.0,0.0,0.0
1405,3.3111429982536733,2.149834088276482,0.0,0.0,0.0,0.0
1406,3.3080752512444094,2.154551622520133,0.0,0.0,0.0,0.0
1407,3.3050007829569434,2.159264779190799,0.0,0.0,0.0,0.0
1408,3.301919599637917,2.163973548712386,0.0,0.0,0.0,0.0
1409,3.298831707547613,2.168677921517716,0.0,0.0,0.0,0.0
1410,3.2957371129599475,2.1733778880485395,0.0,0.0,0.0,0.0
1411,3.292635822162451,2.178073438755567,0.0,0.0,0.0,0.0
1412,3.2895278414562643,2.182764564098471,0.0,0.0,0.0,0.0
1413,3.286413177156116,2.187451254545925,0.0,0.0,0.0,0.0
1414,3.2832918355903162,2.192133500575608,0.0,0.0,0.0,0.0
1415,3.2801638231007404,2.1968112926742327,0.0,0.0,0.0,0.0
1416,3.2770291460428216,2.201484621337555,0.0,0.0,0.0,0.0
1417,3.273887810785529,2.2061534770704045,0.0,0.0,0.0,0.0
1418,3.270739823711362,2.2108178503866998,0.0,0.0,0.0,0.0
1419,3.267585191216336,2.215477731809462,0.0,0.0,0.0,0.0
1420,3.2644239197099676,2.2201331118708425,0.0,0.0,0.0,0.0
1421,3.261256015615262,2.224783981112137,0.0,0.0,0.0,0.0
1422,3.2580814853686983,2.2294303300838076,0.0,0.0,0.0,0.0
1423,3.2549003354202246,2.2340721493454976,0.0,0.0,0.0,0.0
1424,3.2517125722332314,2.2387094294660583,0.0,0.0,0.0,0.0
1425,3.248518202284552,2.243342161023557,0.0,0.0,0.0,0.0
1426,3.2453172320644397,2.2479703346053093,0.0,0.0,0.0,0.0
1427,3.242109668076558,2.2525939408078877,0.0,0.0,0.0,0.0
1428,3.238895516837969,2.257212970237147,0.0,0.0,0.0,0.0
1429,3.2356747848791194,2.261827413508238,0.0,0.0,0.0,0.0
1430,3.2324474787438233,2.266437261245632,0.0,0.0,0.0,0.0
1431,3.2292136049892535,2.271042504083138,0.0,0.0,0.0,0.0
1432,3.2259731701859296,2.275643132663917,0.0,0.0,0.0,0.0
1433,3.222726180917698,2.280239137640509,0.0,0.0,0.0,0.0
1434,3.219472643781723,2.2848305096748476,0.0,0.0,0.0,0.0
1435,3.216212565388473,2.2894172394382806,0.0,0.0,0.0,0.0
1436,3.21294595236171,2.2939993176115827,0.0,0.0,0.0,0.0
1437,3.209672811338468,2.298576734884985,0.0,0.0,0.0,0.0
1438,3.2063931489690454,2.3031494819581884,0.0,0.0,0.0,0.0
1439,3.2031069719169944,2.307717549540377,0.0,0.0,0.0,0.0
1440,3.1998142868591,2.3122809283502495,0.0,0.0,0.0,0.0
1441,3.1965151004853705,2.316839609116027,0.0,0.0,0.0,0.0
1442,3.193209419499022,2.3213935825754786,0.0,0.0,0.0,0.0
1443,3.1898972506164722,2.325942839475934,0.0,0.0,0.0,0.0
1444,3.1865786005673136,2.3304873705743105,0.0,0.0,0.0,0.0
1445,3.1832534760943116,2.3350271666371216,0.0,0.0,0.0,0.0
1446,3.1799218839533836,2.3395622184405065,0.0,0.0,0.0,0.0
1447,3.17658383091359,2.344092516770241,0.0,0.0,0.0,0.0
1448,3.1732393237571155,2.3486180524217612,0.0,0.0,0.0,0.0
1449,3.169888369279261,2.353138816200176,0.0,0.0,0.0,0.0
1450,3.166530974288427,2.3576547989202927,0.0,0.0,0.0,0.0
1451,3.163167145606096,2.3621659914066337,0.0,0.0,0.0,0.0
1452,3.159796890066827,2.3666723844934494,0.0,0.0,0.0,0.0
1453,3.156420214518234,2.371173969024746,0.0,0.0,0.0,0.0
1454,3.153037125820976,2.375670735854298,0.0,0.0,0.0,0.0
1455,3.1496476308487407,2.3801626758456695,0.0,0.0,0.0,0.0
1456,3.1462517364882348,2.3846497798722286,0.0,0.0,0.0,0.0
1457,3.1428494496391646,2.389132038817173,0.0,0.0,0.0,0.0
1458,3.1394407772142268,2.39360944357354,0.0,0.0,0.0,0.0
1459,3.13602572613909,2.3980819850442345,0.0,0.0,0.0,0.0
1460,3.1326043033523834,2.402549654142039,0.0,0.0,0.0,0.0
1461,3.1291765158056823,2.4070124417896377,0.0,0.0,0.0,0.0
1462,3.125742370463493,2.411470338919632,0.0,0.0,0.0,0.0
1463,3.122301874303243,2.415923336474558,0.0,0.0,0.0,0.0
1464,3.1188550343152572,2.42037142540691,0.0,0.0,0.0,0.0
1465,3.115401857502756,2.4248145966791523,0.0,0.0,0.0,0.0
1466,3.1119423508818307,2.429252841263743,0.0,0.0,0.0,0.0
1467,3.1084765214814345,2.4336861501431493,0.0,0.0,0.0,0.0
1468,3.1050043763433663,2.4381145143098686,0.0,0.0,0.0,0.0
1469,3.1015259225222596,2.4425379247664396,0.0,0.0,0.0,0.0
1470,3.0980411670855643,2.446956372525472,0.0,0.0,0.0,0.0
1471,3.094550117113532,2.451369848609656,0.0,0.0,0.0,0.0
1472,3.091052779699207,2.4557783440517804,0.0,0.0,0.0,0.0
1473,3.087549161948406,2.460181849894759,0.0,0.0,0.0,0.0
1474,3.0840392709797055,2.464580357191639,0.0,0.0,0.0,0.0
1475,3.080523113924428,2.468973857005628,0.0,0.0,0.0,0.0
1476,3.0770006979266302,2.4733623404101004,0.0,0.0,0.0,0.0
1477,3.0734720301430816,2.4777457984886313,0.0,0.0,0.0,0.0
1478,3.0699371177432573,2.482124222334999,0.0,0.0,0.0,0.0
1479,3.066395967909317,2.486497603053215,0.0,0.0,0.0,0.0
1480,3.062848587836096,2.4908659317575346,0.0,0.0,0.0,0.0
1481,3.0592949847310864,2.49522919957248,0.0,0.0,0.0,0.0
1482,3.0557351658144243,2.4995873976328564,0.0,0.0,0.0,0.0
1483,3.052169138318877,2.503940517083764,0.0,0.0,0.0,0.0
1484,3.048596909489822,2.5082885490806293,0.0,0.0,0.0,0.0
1485,3.045018486585242,2.5126314847892086,0.0,0.0,0.0,0.0
1486,3.0414338768757014,2.516969315385617,0.0,0.0,0.0,0.0
1487,3.0378430876443345,2.521302032056342,0.0,0.0,0.0,0.0
1488,3.034246126186831,2.5256296259982602,0.0,0.0,0.0,0.0
1489,3.0306429998114246,2.5299520884186544,0.0,0.0,0.0,0.0
1490,3.0270337158388707,2.534269410535238,0.0,0.0,0.0,0.0
1491,3.023418281602436,2.538581583576166,0.0,0.0,0.0,0.0
1492,3.0197967044478866,2.5428885987800536,0.0,0.0,0.0,0.0
1493,3.016168991733466,2.5471904473959985,0.0,0.0,0.0,0.0
1494,3.0125351508298857,2.5514871206835945,0.0,0.0,0.0,0.0
1495,3.0088951891203064,2.5557786099129514,0.0,0.0,0.0,0.0
1496,3.005249114000328,2.5600649063647087,0.0,0.0,0.0,0.0
1497,3.001596932877968,2.564346001330062,0.0,0.0,0.0,0.0
1498,2.997938653173654,2.568621886110768,0.0,0.0,0.0,0.0
1499,2.994274282320201,2.572892552019176,0.0,0.0,0.0,0.0
1500,2.990603827762801,2.5771579903782356,0.0,0.0,0.0,0.0
1501,2.986927296959006,2.5814181925215194,0.0,0.0,0.0,0.0
1502,2.983244697378717,2.585673149793235,0.0,0.0,0.0,0.0
1503,2.979556036504161,2.5899228535482512,0.0,0.0,0.0,0.0
1504,2.975861321829882,2.594167295152109,0.0,0.0,0.0,0.0
1505,2.9721605608627257,2.5984064659810384,0.0,0.0,0.0,0.0
1506,2.96845376112182,2.602640357421982,0.0,0.0,0.0,0.0
1507,2.9647409301385634,2.606868960872607,0.0,0.0,0.0,0.0
1508,2.9610220754566066,2.611092267741328,0.0,0.0,0.0,0.0
1509,2.957297204631844,2.6153102694473143,0.0,0.0,0.0,0.0
1510,2.9535663252323885,2.6195229574205197,0.0,0.0,0.0,0.0
1511,2.949829444838562,2.623730323101695,0.0,0.0,0.0,0.0
1512,2.946086571042882,2.6279323579423988,0.0,0.0,0.0,0.0
1513,2.942337711450041,2.6321290534050257,0.0,0.0,0.0,0.0
1514,2.938582873676893,2.6363204009628185,0.0,0.0,0.0,0.0
1515,2.9348220653524377,2.6405063920998852,0.0,0.0,0.0,0.0
1516,2.93105529411781,2.6446870183112146,0.0,0.0,0.0,0.0
1517,2.9272825676262535,2.6488622711026997,0.0,0.0,0.0,0.0
1518,2.9235038935431183,2.6530321419911465,0.0,0.0,0.0,0.0
1519,2.919719279545834,2.6571966225042996,0.0,0.0,0.0,0.0
1520,2.915928733323901,2.6613557041808553,0.0,0.0,0.0,0.0
1521,2.9121322625788695,2.6655093785704786,0.0,0.0,0.0,0.0
1522,2.908329875024332,2.669657637233818,0.0,0.0,0.0,0.0
1523,2.9045215783859,2.673800471742531,0.0,0.0,0.0,0.0
1524,2.900707380401189,2.677937873679293,0.0,0.0,0.0,0.0
1525,2.89688728881981,2.6820698346378147,0.0,0.0,0.0,0.0
1526,2.893061311403343,2.6861963462228653,0.0,0.0,0.0,0.0
1527,2.8892294559253293,2.6903174000502856,0.0,0.0,0.0,0.0
1528,2.885391730171252,2.6944329877470046,0.0,0.0,0.0,0.0
1529,2.881548141938525,2.698543100951055,0.0,0.0,0.0,0.0
1530,2.877698699036468,2.702647731311597,0.0,0.0,0.0,0.0
1531,2.873843409286299,2.706746870488928,0.0,0.0,0.0,0.0
1532,2.8699822805211164,2.710840510154501,0.0,0.0,0.0,0.0
1533,2.8661153205858803,2.7149286419909457,0.0,0.0,0.0,0.0
1534,2.8622425373373983,2.719011257692081,0.0,0.0,0.0,0.0
1535,2.8583639386443114,2.7230883489629347,0.0,0.0,0.0,0.0
1536,2.8544795323870757,2.727159907519756,0.0,0.0,0.0,0.0
1537,2.8505893264579454,2.731225925090039,0.0,0.0,0.0,0.0
1538,2.8466933287609613,2.735286393412532,0.0,0.0,0.0,0.0
1539,2.84279154721193,2.739341304237262,0.0,0.0,0.0,0.0
1540,2.838883989738409,2.743390649325545,0.0,0.0,0.0,0.0
1541,2.8349706642796906,2.747434420450008,0.0,0.0,0.0,0.0
1542,2.831051578786791,2.751472609394599,0.0,0.0,0.0,0.0
1543,2.8271267412224237,2.7555052079546107,0.0,0.0,0.0,0.0
1544,2.823196159560992,2.759532207936695,0.0,0.0,0.0,0.0
1545,2.819259841788571,2.763553601158875,0.0,0.0,0.0,0.0
1546,2.8153177959028874,2.767569379450569,0.0,0.0,0.0,0.0
1547,2.811370029913309,2.7715795346526035,0.0,0.0,0.0,0.0
1548,2.8074165518408227,2.7755840586172287,0.0,0.0,0.0,0.0
1549,2.8034573697180245,2.779582943208135,0.0,0.0,0.0,0.0
1550,2.7994924915890955,2.7835761803004746,0.0,0.0,0.0,0.0
1551,2.795521925509795,2.787563761780869,0.0,0.0,0.0,0.0
1552,2.7915456795474354,2.7915456795474345,0.0,0.0,0.0,0.0
1553,2.78756376178087,2.795521925509794,0.0,0.0,0.0,0.0
1554,2.7835761803004755,2.7994924915890946,0.0,0.0,0.0,0.0
1555,2.779582943208136,2.8034573697180236,0.0,0.0,0.0,0.0
1556,2.77558405861723,2.807416551840822,0.0,0.0,0.0,0.0
1557,2.7715795346526044,2.811370029913308,0.0,0.0,0.0,0.0
1558,2.76756937945057,2.8153177959028866,0.0,0.0,0.0,0.0
1559,2.763553601158876,2.81925984178857,0.0,0.0,0.0,0.0
1560,2.759532207936696,2.823196159560991,0.0,0.0,0.0,0.0
1561,2.7555052079546116,2.827126741222423,0.0,0.0,0.0,0.0
1562,2.7514726093945994,2.83105157878679,0.0,0.0,0.0,0.0
1563,2.7474344204500087,2.8349706642796897,0.0,0.0,0.0,0.0
1564,2.743390649325546,2.838883989738408,0.0,0.0,0.0,0.0
1565,2.739341304237263,2.842791547211929,0.0,0.0,0.0,0.0
1566,2.7352863934125335,2.8466933287609604,0.0,0.0,0.0,0.0
1567,2.73122592509004,2.8505893264579445,0.0,0.0,0.0,0.0
1568,2.727159907519757,2.854479532387075,0.0,0.0,0.0,0.0
1569,2.7230883489629356,2.8583639386443105,0.0,0.0,0.0,0.0
1570,2.719011257692082,2.862242537337398,0.0,0.0,0.0,0.0
1571,2.7149286419909466,2.8661153205858794,0.0,0.0,0.0,0.0
1572,2.710840510154502,2.8699822805211155,0.0,0.0,0.0,0.0
1573,2.706746870488929,2.873843409286298,0.0,0.0,0.0,0.0
1574,2.7026477313115977,2.877698699036467,0.0,0.0,0.0,0.0
1575,2.6985431009510563,2.881548141938524,0.0,0.0,0.0,0.0
1576,2.6944329877470055,2.8853917301712513,0.0,0.0,0.0,0.0
1577,2.690317400050286,2.8892294559253284,0.0,0.0,0.0,0.0
1578,2.686196346222866,2.893061311403342,0.0,0.0,0.0,0.0
1579,2.6820698346378156,2.896887288819809,0.0,0.0,0.0,0.0
1580,2.677937873679294,2.900707380401188,0.0,0.0,0.0,0.0
1581,2.673800471742532,2.904521578385899,0.0,0.0,0.0,0.0
1582,2.6696576372338194,2.9083298750243314,0.0,0.0,0.0,0.0
1583,2.6655093785704795,2.9121322625788686,0.0,0.0,0.0,0.0
1584,2.661355704180856,2.9159287333239,0.0,0.0,0.0,0.0
1585,2.6571966225043004,2.9197192795458333,0.0,0.0,0.0,0.0
1586,2.6530321419911473,2.9235038935431175,0.0,0.0,0.0,0.0
1587,2.6488622711027006,2.9272825676262526,0.0,0.0,0.0,0.0
1588,2.6446870183112154,2.931055294117809,0.0,0.0,0.0,0.0
1589,2.640506392099886,2.934822065352437,0.0,0.0,0.0,0.0
1590,2.6363204009628194,2.938582873676892,0.0,0.0,0.0,0.0
1591,2.6321290534050266,2.94233771145004,0.0,0.0,0.0,0.0
1592,2.6279323579423997,2.946086571042881,0.0,0.0,0.0,0.0
1593,2.6237303231016957,2.949829444838561,0.0,0.0,0.0,0.0
1594,2.619522957420521,2.9535663252323876,0.0,0.0,0.0,0.0
1595,2.615310269447315,2.9572972046318426,0.0,0.0,0.0,0.0
1596,2.611092267741329,2.9610220754566057,0.0,0.0,0.0,0.0
1597,2.6068689608726086,2.9647409301385625,0.0,0.0,0.0,0.0
1598,2.6026403574219827,2.968453761121819,0.0,0.0,0.0,0.0
1599,2.5984064659810397,2.972160560862725,0.0,0.0,0.0,0.0
1600,2.59416729515211,2.975861321829881,0.0,0.0,0.0,0.0
1601,2.589922853548252,2.9795560365041602,0.0,0.0,0.0,0.0
1602,2.585673149793236,2.983244697378716,0.0,0.0,0.0,0.0
1603,2.5814181925215203,2.986927296959005,0.0,0.0,0.0,0.0
1604,2.5771579903782365,2.9906038277628,0.0,0.0,0.0,0.0
1605,2.572892552019177,2.9942742823202,0.0,0.0,0.0,0.0
1606,2.5686218861107695,2.997938653173653,0.0,0.0,0.0,0.0
1607,2.564346001330063,3.001596932877967,0.0,0.0,0.0,0.0
1608,2.560064906364711,3.005249114000326,0.0,0.0,0.0,0.0
1609,2.555778609912951,3.0088951891203064,0.0,0.0,0.0,0.0
1610,2.5514871206835954,3.0125351508298848,0.0,0.0,0.0,0.0
1611,2.5471904473959994,3.016168991733465,0.0,0.0,0.0,0.0
1612,2.542888598780055,3.0197967044478857,0.0,0.0,0.0,0.0
1613,2.5385815835761667,3.023418281602435,0.0,0.0,0.0,0.0
1614,2.53426941053524,3.0270337158388685,0.0,0.0,0.0,0.0
1615,2.529952088418657,3.030642999811423,0.0,0.0,0.0,0.0
1616,2.52562962599826,3.034246126186831,0.0,0.0,0.0,0.0
1617,2.521302032056343,3.0378430876443336,0.0,0.0,0.0,0.0
1618,2.516969315385618,3.0414338768757005,0.0,0.0,0.0,0.0
1619,2.51263148478921,3.045018486585241,0.0,0.0,0.0,0.0
1620,2.5082885490806306,3.048596909489821,0.0,0.0,0.0,0.0
1621,2.5039405170837665,3.0521691383188747,0.0,0.0,0.0,0.0
1622,2.499587397632856,3.0557351658144243,0.0,0.0,0.0,0.0
1623,2.4952291995724813,3.059294984731086,0.0,0.0,0.0,0.0
1624,2.490865931757536,3.0628485878360956,0.0,0.0,0.0,0.0
1625,2.4864976030532158,3.0663959679093167,0.0,0.0,0.0,0.0
1626,2.482124222335,3.0699371177432564,0.0,0.0,0.0,0.0
1627,2.477745798488632,3.0734720301430807,0.0,0.0,0.0,0.0
1628,2.4733623404101026,3.077000697926629,0.0,0.0,0.0,0.0
1629,2.4689738570056274,3.0805231139244285,0.0,0.0,0.0,0.0
1630,2.4645803571916405,3.0840392709797046,0.0,0.0,0.0,0.0
1631,2.4601818498947603,3.087549161948405,0.0,0.0,0.0,0.0
1632,2.4557783440517817,3.0910527796992064,0.0,0.0,0.0,0.0
1633,2.451369848609657,3.0945501171135312,0.0,0.0,0.0,0.0
1634,2.4469563725254737,3.0980411670855625,0.0,0.0,0.0,0.0
1635,2.4425379247664396,3.10152592252226,0.0,0.0,0.0,0.0
1636,2.438114514309868,3.105004376343367,0.0,0.0,0.0,0.0
1637,2.43368615014315,3.1084765214814336,0.0,0.0,0.0,0.0
1638,2.429252841263744,3.11194235088183,0.0,0.0,0.0,0.0
1639,2.4248145966791532,3.115401857502755,0.0,0.0,0.0,0.0
1640,2.420371425406911,3.1188550343152563,0.0,0.0,0.0,0.0
1641,2.41592333647456,3.1223018743032407,0.0,0.0,0.0,0.0
1642,2.4114703389196346,3.1257423704634912,0.0,0.0,0.0,0.0
1643,2.4070124417896386,3.1291765158056815,0.0,0.0,0.0,0.0
1644,2.4025496541420397,3.1326043033523825,0.0,0.0,0.0,0.0
1645,2.3980819850442354,3.136025726139089,0.0,0.0,0.0,0.0
1646,2.3936094435735416,3.139440777214226,0.0,0.0,0.0,0.0
1647,2.389132038817174,3.142849449639164,0.0,0.0,0.0,0.0
1648,2.384649779872228,3.146251736488235,0.0,0.0,0.0,0.0
1649,2.380162675845669,3.1496476308487407,0.0,0.0,0.0,0.0
1650,2.3756707358542988,3.1530371258209753,0.0,0.0,0.0,0.0
1651,2.371173969024747,3.156420214518233,0.0,0.0,0.0,0.0
1652,2.3666723844934503,3.159796890066826,0.0,0.0,0.0,0.0
1653,2.3621659914066346,3.1631671456060952,0.0,0.0,0.0,0.0
1654,2.3576547989202954,3.1665309742884253,0.0,0.0,0.0,0.0
1655,2.3531388162001785,3.1698883692792594,0.0,0.0,0.0,0.0
1656,2.3486180524217612,3.1732393237571155,0.0,0.0,0.0,0.0
1657,2.344092516770242,3.176583830913589,0.0,0.0,0.0,0.0
1658,2.3395622184405074,3.179921883953383,0.0,0.0,0.0,0.0
1659,2.3350271666371225,3.1832534760943108,0.0,0.0,0.0,0.0
1660,2.3304873705743114,3.1865786005673127,0.0,0.0,0.0,0.0
1661,2.3259428394759367,3.1898972506164704,0.0,0.0,0.0,0.0
1662,2.321393582575478,3.1932094194990226,0.0,0.0,0.0,0.0
1663,2.316839609116028,3.1965151004853696,0.0,0.0,0.0,0.0
1664,2.3122809283502503,3.199814286859099,0.0,0.0,0.0,0.0
1665,2.307717549540378,3.2031069719169936,0.0,0.0,0.0,0.0
1666,2.3031494819581892,3.2063931489690445,0.0,0.0,0.0,0.0
1667,2.2985767348849873,3.209672811338466,0.0,0.0,0.0,0.0
1668,2.293999317611585,3.212945952361708,0.0,0.0,0.0,0.0
1669,2.28941723943828,3.2162125653884734,0.0,0.0,0.0,0.0
1670,2.2848305096748485,3.2194726437817223,0.0,0.0,0.0,0.0
1671,2.28023913764051,3.222726180917697,0.0,0.0,0.0,0.0
1672,2.2756431326639177,3.225973170185929,0.0,0.0,0.0,0.0
1673,2.271042504083139,3.2292136049892526,0.0,0.0,0.0,0.0
1674,2.2664372612456347,3.2324474787438215,0.0,0.0,0.0,0.0
1675,2.2618274135082377,3.2356747848791194,0.0,0.0,0.0,0.0
1676,2.2572129702371466,3.238895516837969,0.0,0.0,0.0,0.0
1677,2.2525939408078886,3.2421096680765573,0.0,0.0,0.0,0.0
1678,2.2479703346053097,3.245317232064439,0.0,0.0,0.0,0.0
1679,2.243342161023558,3.248518202284551,0.0,0.0,0.0,0.0
1680,2.238709429466059,3.2517125722332305,0.0,0.0,0.0,0.0
1681,2.2340721493455002,3.254900335420223,0.0,0.0,0.0,0.0
1682,2.229430330083807,3.258081485368699,0.0,0.0,0.0,0.0
1683,2.2247839811121377,3.261256015615261,0.0,0.0,0.0,0.0
1684,2.2201331118708434,3.264423919709967,0.0,0.0,0.0,0.0
1685,2.215477731809463,3.267585191216335,0.0,0.0,0.0,0.0
1686,2.210817850386701,3.270739823711361,0.0,0.0,0.0,0.0
1687,2.2061534770704068,3.2738878107855274,0.0,0.0,0.0,0.0
1688,2.2014846213375545,3.2770291460428216,0.0,0.0,0.0,0.0
1689,2.1968112926742323,3.280163823100741,0.0,0.0,0.0,0.0
1690,2.1921335005756095,3.283291835590316,0.0,0.0,0.0,0.0
1691,2.1874512545459264,3.2864131771561156,0.0,0.0,0.0,0.0
1692,2.182764564098472,3.289527841456264,0.0,0.0,0.0,0.0
1693,2.1780734387555674,3.2926358221624508,0.0,0.0,0.0,0.0
1694,2.173377888048542,3.2957371129599458,0.0,0.0,0.0,0.0
1695,2.1686779215177183,3.298831707547611,0.0,0.0,0.0,0.0
1696,2.163973548712387,3.3019195996379165,0.0,0.0,0.0,0.0
1697,2.1592647791907997,3.305000782956943,0.0,0.0,0.0,0.0
1698,2.154551622520134,3.3080752512444085,0.0,0.0,0.0,0.0
1699,2.149834088276483,3.311142998253673,0.0,0.0,0.0,0.0
1700,2.145112186044834,3.3142040177517518,0.0,0.0,0.0,0.0
1701,2.1403859254190456,3.3172583035193313,0.0,0.0,0.0,0.0
1702,2.1356553160018428,3.3203058493507744,0.0,0.0,0.0,0.0
1703,2.130920367404775,3.323346649054142,0.0,0.0,0.0,0.0
1704,2.126181089248213,3.3263806964512015,0.0,0.0,0.0,0.0
1705,2.121437491161322,3.3294079853774385,0.0,0.0,0.0,0.0
1706,2.1166895827820458,3.332428509682071,0.0,0.0,0.0,0.0
1707,2.111937373757086,3.33544226322806,0.0,0.0,0.0,0.0
1708,2.1071808737418807,3.338449239892124,0.0,0.0,0.0,0.0
1709,2.1024200924005854,3.3414494335647533,0.0,0.0,0.0,0.0
1710,2.0976550394060616,3.344442838150213,0.0,0.0,0.0,0.0
1711,2.092885724439841,3.347429447566568,0.0,0.0,0.0,0.0
1712,2.0881121571921186,3.3504092557456877,0.0,0.0,0.0,0.0
1713,2.0833343473617294,3.35338225663326,0.0,0.0,0.0,0.0
1714,2.0785523046561236,3.3563484441888054,0.0,0.0,0.0,0.0
1715,2.0737660387913612,3.359307812385683,0.0,0.0,0.0,0.0
1716,2.068975559492076,3.362260355211111,0.0,0.0,0.0,0.0
1717,2.064180876491462,3.365206066666176,0.0,0.0,0.0,0.0
1718,2.059381999531257,3.368144940765842,0.0,0.0,0.0,0.0
1719,2.0545789383617192,3.371076971538966,0.0,0.0,0.0,0.0
1720,2.049771702741607,3.3740021530283095,0.0,0.0,0.0,0.0
1721,2.0449603024381617,3.37692047929055,0.0,0.0,0.0,0.0
1722,2.0401447472270866,3.379831944396293,0.0,0.0,0.0,0.0
1723,2.0353250468925217,3.3827365424300853,0.0,0.0,0.0,0.0
1724,2.030501211227041,3.385634267490423,0.0,0.0,0.0,0.0
1725,2.0256732500316095,3.3885251136897705,0.0,0.0,0.0,0.0
1726,2.020841173115578,3.3914090751545665,0.0,0.0,0.0,0.0
1727,2.016004990296659,3.394286146025238,0.0,0.0,0.0,0.0
1728,2.0111647114009057,3.3971563204562147,0.0,0.0,0.0,0.0
1729,2.0063203462627004,3.400019592615933,0.0,0.0,0.0,0.0
1730,2.0014719047247205,3.402875956686857,0.0,0.0,0.0,0.0
1731,1.996619396637929,3.4057254068654874,0.0,0.0,0.0,0.0
1732,1.9917628318615497,3.4085679373623696,0.0,0.0,0.0,0.0
1733,1.9869022202630497,3.411403542402109,0.0,0.0,0.0,0.0
1734,1.9820375717181176,3.4142322162233847,0.0,0.0,0.0,0.0
1735,1.9771688961106457,3.417053953078954,0.0,0.0,0.0,0.0
1736,1.9722962033327038,3.4198687472356744,0.0,0.0,0.0,0.0
1737,1.9674195032845334,3.4226765929745007,0.0,0.0,0.0,0.0
1738,1.9625388058745086,3.425477484590514,0.0,0.0,0.0,0.0
1739,1.9576541210191287,3.42827141639292,0.0,0.0,0.0,0.0
1740,1.9527654586429946,3.431058382705067,0.0,0.0,0.0,0.0
1741,1.947872828678785,3.433838377864457,0.0,0.0,0.0,0.0
1742,1.9429762410672493,3.43661139622275,0.0,0.0,0.0,0.0
1743,1.9380757057571691,3.439377432145787,0.0,0.0,0.0,0.0
1744,1.9331712327053499,3.442136480013594,0.0,0.0,0.0,0.0
1745,1.928262831876597,3.444888534220395,0.0,0.0,0.0,0.0
1746,1.9233505132436974,3.447633589174624,0.0,0.0,0.0,0.0
1747,1.918434286787397,3.450371639298936,0.0,0.0,0.0,0.0
1748,1.9135141624963818,3.4531026790302177,0.0,0.0,0.0,0.0
1749,1.908590150367255,3.4558267028196012,0.0,0.0,0.0,0.0
1750,1.903662260404528,3.4585437051324677,0.0,0.0,0.0,0.0
1751,1.8987305026205807,3.461253680448472,0.0,0.0,0.0,0.0
1752,1.8937948870356562,3.4639566232615415,0.0,0.0,0.0,0.0
1753,1.8888554236778352,3.4666525280798943,0.0,0.0,0.0,0.0
1754,1.8839121225830127,3.469341389426048,0.0,0.0,0.0,0.0
1755,1.8789649937948913,3.4720232018368278,0.0,0.0,0.0,0.0
1756,1.8740140473649405,3.474697959863385,0.0,0.0,0.0,0.0
1757,1.86905929335239,3.4773656580712013,0.0,0.0,0.0,0.0
1758,1.8641007418242053,3.4800262910401036,0.0,0.0,0.0,0.0
1759,1.859138402855068,3.4826798533642735,0.0,0.0,0.0,0.0
1760,1.8541722865273549,3.4853263396522594,0.0,0.0,0.0,0.0
1761,1.849202402931117,3.487965744526984,0.0,0.0,0.0,0.0
1762,1.8442287621640574,3.490598062625762,0.0,0.0,0.0,0.0
1763,1.8392513743315215,3.4932232886003014,0.0,0.0,0.0,0.0
1764,1.8342702495464587,3.4958414171167242,0.0,0.0,0.0,0.0
1765,1.8292853979294144,3.4984524428555717,0.0,0.0,0.0,0.0
1766,1.824296829608506,3.5010563605118166,0.0,0.0,0.0,0.0
1767,1.8193045547193998,3.5036531647948745,0.0,0.0,0.0,0.0
1768,1.8143085834053008,3.50624285042861,0.0,0.0,0.0,0.0
1769,1.8093089258169168,3.5088254121513556,0.0,0.0,0.0,0.0
1770,1.8043055921124478,3.511400844715915,0.0,0.0,0.0,0.0
1771,1.7992985924575624,3.5139691428895796,0.0,0.0,0.0,0.0
1772,1.7942879370253777,3.516530301454135,0.0,0.0,0.0,0.0
1773,1.7892736359964392,3.5190843152058715,0.0,0.0,0.0,0.0
1774,1.7842556995586987,3.5216311789555976,0.0,0.0,0.0,0.0
1775,1.779234137907495,3.5241708875286495,0.0,0.0,0.0,0.0
1776,1.7742089612455285,3.5267034357649005,0.0,0.0,0.0,0.0
1777,1.7691801797828548,3.529228818518771,0.0,0.0,0.0,0.0
1778,1.7641478037368439,3.5317470306592407,0.0,0.0,0.0,0.0
1779,1.7591118433321724,3.53425806706986,0.0,0.0,0.0,0.0
1780,1.7540723088007995,3.536761922648756,0.0,0.0,0.0,0.0
1781,1.7490292103819427,3.5392585923086504,0.0,0.0,0.0,0.0
1782,1.7439825583220705,3.5417480709768587,0.0,0.0,0.0,0.0
1783,1.7389323628748623,3.544230353595311,0.0,0.0,0.0,0.0
1784,1.7338786343011994,3.546705435120557,0.0,0.0,0.0,0.0
1785,1.728821382869142,3.549173310523779,0.0,0.0,0.0,0.0
1786,1.723760618853908,3.5516339747907986,0.0,0.0,0.0,0.0
1787,1.718696352537852,3.5540874229220893,0.0,0.0,0.0,0.0
1788,1.7136285942104446,3.5565336499327866,0.0,0.0,0.0,0.0
1789,1.7085573541682482,3.5589726508526995,0.0,0.0,0.0,0.0
1790,1.7034826427149083,3.5614044207263134,0.0,0.0,0.0,0.0
1791,1.698404470161115,3.5638289546128106,0.0,0.0,0.0,0.0
1792,1.6933228468245929,3.5662462475860734,0.0,0.0,0.0,0.0
1793,1.6882377830300783,3.5686562947346974,0.0,0.0,0.0,0.0
1794,1.6831492891092945,3.571059091162,0.0,0.0,0.0,0.0
1795,1.6780573754009434,3.573454631986027,0.0,0.0,0.0,0.0
1796,1.6729620522506659,3.5758429123395694,0.0,0.0,0.0,0.0
1797,1.6678633300110326,3.57822392737017,0.0,0.0,0.0,0.0
1798,1.6627612190415217,3.5805976722401316,0.0,0.0,0.0,0.0
1799,1.6576557297084948,3.582964142126529,0.0,0.0,0.0,0.0
1800,1.6525468723851795,3.585323332221218,0.0,0.0,0.0,0.0
1801,1.6474346574516445,3.587675237730845,0.0,0.0,0.0,0.0
1802,1.6423190952947786,3.59001985387686,0.0,0.0,0.0,0.0
1803,1.6372001963082807,3.592357175895518,0.0,0.0,0.0,0.0
1804,1.632077970892619,3.5946871990378977,0.0,0.0,0.0,0.0
1805,1.6269524294550246,3.5970099185699067,0.0,0.0,0.0,0.0
1806,1.6218235824094656,3.5993253297722925,0.0,0.0,0.0,0.0
1807,1.6166914401766228,3.601633427940652,0.0,0.0,0.0,0.0
1808,1.6115560131838824,3.603934208385437,0.0,0.0,0.0,0.0
1809,1.606417311865294,3.606227666431971,0.0,0.0,0.0,0.0
1810,1.6012753466615637,3.608513797420454,0.0,0.0,0.0,0.0
1811,1.5961301280200295,3.610792596705972,0.0,0.0,0.0,0.0
1812,1.5909816663946386,3.61306405965851,0.0,0.0,0.0,0.0
1813,1.5858299722459281,3.6153281816629557,0.0,0.0,0.0,0.0
1814,1.5806750560410023,3.6175849581191137,0.0,0.0,0.0,0.0
1815,1.5755169282535126,3.6198343844417122,0.0,0.0,0.0,0.0
1816,1.570355599363632,3.622076456060416,0.0,0.0,0.0,0.0
1817,1.5651910798580473,3.6243111684198275,0.0,0.0,0.0,0.0
1818,1.5600233802299175,3.6265385169795064,0.0,0.0,0.0,0.0
1819,1.5548525109788676,3.628758497213972,0.0,0.0,0.0,0.0
1820,1.5496784826109613,3.6309711046127155,0.0,0.0,0.0,0.0
1821,1.5445013056386783,3.633176334680208,0.0,0.0,0.0,0.0
1822,1.5393209905809049,3.6353741829359074,0.0,0.0,0.0,0.0
1823,1.534137547962894,3.6375646449142724,0.0,0.0,0.0,0.0
1824,1.5289509883162558,3.6397477161647678,0.0,0.0,0.0,0.0
1825,1.5237613221789343,3.6419233922518743,0.0,0.0,0.0,0.0
1826,1.5185685600951842,3.6440916687551006,0.0,0.0,0.0,0.0
1827,1.5133727126155514,3.6462525412689866,0.0,0.0,0.0,0.0
1828,1.5081737902968504,3.648406005403117,0.0,0.0,0.0,0.0
1829,1.5029718037021396,3.650552056782129,0.0,0.0,0.0,0.0
1830,1.497766763400713,3.6526906910457186,0.0,0.0,0.0,0.0
1831,1.4925586799680597,3.654821903848654,0.0,0.0,0.0,0.0
1832,1.4873475639858547,3.656945690860782,0.0,0.0,0.0,0.0
1833,1.482133426041935,3.6590620477670353,0.0,0.0,0.0,0.0
1834,1.4769162767302735,3.6611709702674475,0.0,0.0,0.0,0.0
1835,1.4716961266509718,3.6632724540771497,0.0,0.0,0.0,0.0
1836,1.4664729864102188,3.6653664949263933,0.0,0.0,0.0,0.0
1837,1.4612468666202814,3.6674530885605483,0.0,0.0,0.0,0.0
1838,1.456017777899481,3.6695322307401192,0.0,0.0,0.0,0.0
1839,1.4507857308721703,3.6716039172407475,0.0,0.0,0.0,0.0
1840,1.4455507361687139,3.6736681438532233,0.0,0.0,0.0,0.0
1841,1.4403128044254638,3.675724906383495,0.0,0.0,0.0,0.0
1842,1.435071946284738,3.677774200652676,0.0,0.0,0.0,0.0
1843,1.4298281723948083,3.6798160224970515,0.0,0.0,0.0,0.0
1844,1.4245814934098626,3.6818503677680905,0.0,0.0,0.0,0.0
1845,1.4193319199899928,3.6838772323324536,0.0,0.0,0.0,0.0
1846,1.4140794628011728,3.6858966120719994,0.0,0.0,0.0,0.0
1847,1.4088241325152324,3.687908502883796,0.0,0.0,0.0,0.0
1848,1.4035659398098483,3.6899129006801226,0.0,0.0,0.0,0.0
1849,1.3983048953685033,3.691909801388487,0.0,0.0,0.0,0.0
1850,1.393041009880478,3.693899200951628,0.0,0.0,0.0,0.0
1851,1.3877742940408242,3.6958810953275254,0.0,0.0,0.0,0.0
1852,1.3825047585503456,3.6978554804894075,0.0,0.0,0.0,0.0
1853,1.3772324141155743,3.6998223524257603,0.0,0.0,0.0,0.0
1854,1.3719572714487498,3.701781707140333,0.0,0.0,0.0,0.0
1855,1.3666793412677931,3.7037335406521525,0.0,0.0,0.0,0.0
1856,1.3613986342962996,3.7056778489955207,0.0,0.0,0.0,0.0
1857,1.3561151612634956,3.707614628220034,0.0,0.0,0.0,0.0
1858,1.3508289329042316,3.709543874390585,0.0,0.0,0.0,0.0
1859,1.3455399599589557,3.7114655835873718,0.0,0.0,0.0,0.0
1860,1.3402482531736897,3.7133797519059066,0.0,0.0,0.0,0.0
1861,1.3349538233000193,3.7152863754570196,0.0,0.0,0.0,0.0
1862,1.3296566810950534,3.7171854503668746,0.0,0.0,0.0,0.0
1863,1.3243568373214145,3.7190769727769712,0.0,0.0,0.0,0.0
1864,1.319054302747215,3.7209609388441525,0.0,0.0,0.0,0.0
1865,1.3137490881460336,3.7228373447406167,0.0,0.0,0.0,0.0
1866,1.3084412042968945,3.7247061866539206,0.0,0.0,0.0,0.0
1867,1.3031306619842453,3.7265674607869914,0.0,0.0,0.0,0.0
1868,1.2978174719979352,3.7284211633581297,0.0,0.0,0.0,0.0
1869,1.2925016451331888,3.7302672906010232,0.0,0.0,0.0,0.0
1870,1.2871831921905992,3.732105838764747,0.0,0.0,0.0,0.0
1871,1.2818621239760846,3.733936804113779,0.0,0.0,0.0,0.0
1872,1.27653845130088,3.735760182928001,0.0,0.0,0.0,0.0
1873,1.2712121849815123,3.7375759715027104,0.0,0.0,0.0,0.0
1874,1.2658833358397754,3.739384166148627,0.0,0.0,0.0,0.0
1875,1.26055191470272,3.741184763191897,0.0,0.0,0.0,0.0
1876,1.2552179324026125,3.7429777589741047,0.0,0.0,0.0,0.0
1877,1.2498813997769274,3.7447631498522798,0.0,0.0,0.0,0.0
1878,1.24454232766832,3.7465409321989025,0.0,0.0,0.0,0.0
1879,1.2392007269246053,3.748311102401911,0.0,0.0,0.0,0.0
1880,1.2338566083987361,3.7500736568647115,0.0,0.0,0.0,0.0
1881,1.2285099829487813,3.7518285920061816,0.0,0.0,0.0,0.0
1882,1.2231608614378988,3.753575904260682,0.0,0.0,0.0,0.0
1883,1.2178092547343293,3.7553155900780584,0.0,0.0,0.0,0.0
1884,1.2124551737113516,3.757047645923655,0.0,0.0,0.0,0.0
1885,1.207098629247276,3.758772068278316,0.0,0.0,0.0,0.0
1886,1.2017396322254175,3.760488853638396,0.0,0.0,0.0,0.0
1887,1.1963781935340712,3.7621979985157683,0.0,0.0,0.0,0.0
1888,1.1910143240665028,3.7638994994378256,0.0,0.0,0.0,0.0
1889,1.1856480347209069,3.7655933529474943,0.0,0.0,0.0,0.0
1890,1.180279336400398,3.767279555603239,0.0,0.0,0.0,0.0
1891,1.1749082400129858,3.7689581039790676,0.0,0.0,0.0,0.0
1892,1.1695347564715508,3.7706289946645417,0.0,0.0,0.0,0.0
1893,1.1641588966938254,3.7722922242647794,0.0,0.0,0.0,0.0
1894,1.158780671602369,3.773947789400466,0.0,0.0,0.0,0.0
1895,1.1534000921245435,3.77559568670786,0.0,0.0,0.0,0.0
1896,1.1480171691925047,3.777235912838796,0.0,0.0,0.0,0.0
1897,1.1426319137431598,3.778868464460697,0.0,0.0,0.0,0.0
1898,1.137244336718158,3.7804933382565795,0.0,0.0,0.0,0.0
1899,1.131854449063866,3.7821105309250598,0.0,0.0,0.0,0.0
1900,1.1264622617313413,3.7837200391803587,0.0,0.0,0.0,0.0
1901,1.1210677856763247,3.7853218597523095,0.0,0.0,0.0,0.0
1902,1.1156710318591967,3.786915989386369,0.0,0.0,0.0,0.0
1903,1.1102720112449682,3.7885024248436157,0.0,0.0,0.0,0.0
1904,1.1048707348032574,3.790081162900765,0.0,0.0,0.0,0.0
1905,1.0994672135082642,3.7916522003501685,0.0,0.0,0.0,0.0
1906,1.0940614583387507,3.793215533999826,0.0,0.0,0.0,0.0
1907,1.0886534802780174,3.7947711606733896,0.0,0.0,0.0,0.0
1908,1.0832432903138778,3.7963190772101685,0.0,0.0,0.0,0.0
1909,1.0778308994386492,3.797859280465138,0.0,0.0,0.0,0.0
1910,1.0724163186491116,3.7993917673089452,0.0,0.0,0.0,0.0
1911,1.0669995589464967,3.8009165346279157,0.0,0.0,0.0,0.0
1912,1.061580631336464,3.802433579324059,0.0,0.0,0.0,0.0
1913,1.0561595468290736,3.8039428983150767,0.0,0.0,0.0,0.0
1914,1.050736316438779,3.805444488534364,0.0,0.0,0.0,0.0
1915,1.045310951184383,3.8069383469310223,0.0,0.0,0.0,0.0
1916,1.0398834620890294,3.8084244704698604,0.0,0.0,0.0,0.0
1917,1.0344538601801767,3.8099028561314046,0.0,0.0,0.0,0.0
1918,1.0290221564895774,3.811373500911901,0.0,0.0,0.0,0.0
1919,1.023588362053253,3.8128364018233247,0.0,0.0,0.0,0.0
1920,1.018152487911474,3.814291555893385,0.0,0.0,0.0,0.0
1921,1.0127145451087356,3.815738960165529,0.0,0.0,0.0,0.0
1922,1.0072745446937335,3.8171786116989517,0.0,0.0,0.0,0.0
1923,1.0018324977193531,3.818610507568598,0.0,0.0,0.0,0.0
1924,0.9963884152426286,3.820034644865173,0.0,0.0,0.0,0.0
1925,0.9909423083247331,3.821451020695143,0.0,0.0,0.0,0.0
1926,0.985494188030953,3.822859632180747,0.0,0.0,0.0,0.0
1927,0.9800440654306618,3.824260476459997,0.0,0.0,0.0,0.0
1928,0.9745919515973117,3.8256535506866856,0.0,0.0,0.0,0.0
1929,0.96913785760839,3.827038852030395,0.0,0.0,0.0,0.0
1930,0.9636817945454114,3.8284163776764983,0.0,0.0,0.0,0.0
1931,0.9582237734938903,3.8297861248261675,0.0,0.0,0.0,0.0
1932,0.9527638055433203,3.8311480906963795,0.0,0.0,0.0,0.0
1933,0.9473019017871501,3.83250227251992,0.0,0.0,0.0,0.0
1934,0.9418380733227619,3.833848667545391,0.0,0.0,0.0,0.0
1935,0.9363723312514445,3.8351872730372163,0.0,0.0,0.0,0.0
1936,0.9309046866783854,3.836518086275643,0.0,0.0,0.0,0.0
1937,0.9254351507126274,3.8378411045567535,0.0,0.0,0.0,0.0
1938,0.9199637344670593,3.8391563251924667,0.0,0.0,0.0,0.0
1939,0.9144904490583904,3.840463745510545,0.0,0.0,0.0,0.0
1940,0.9090153056071241,3.841763362854601,0.0,0.0,0.0,0.0
1941,0.9035383152375496,3.8430551745840953,0.0,0.0,0.0,0.0
1942,0.898059489077698,3.8443391780743554,0.0,0.0,0.0,0.0
1943,0.8925788382593336,3.8456153707165672,0.0,0.0,0.0,0.0
1944,0.8870963739179287,3.846883749917791,0.0,0.0,0.0,0.0
1945,0.8816121071926396,3.8481443131009594,0.0,0.0,0.0,0.0
1946,0.876126049226285,3.8493970577048877,0.0,0.0,0.0,0.0
1947,0.8706382111653228,3.850641981184274,0.0,0.0,0.0,0.0
1948,0.8651486041598243,3.8518790810097103,0.0,0.0,0.0,0.0
1949,0.8596572393634653,3.8531083546676816,0.0,0.0,0.0,0.0
1950,0.8541641279334826,3.854329799660576,0.0,0.0,0.0,0.0
1951,0.8486692810306653,3.855543413506687,0.0,0.0,0.0,0.0
1952,0.8431727098193286,3.8567491937402196,0.0,0.0,0.0,0.0
1953,0.8376744254672874,3.857947137911295,0.0,0.0,0.0,0.0
1954,0.8321744391458483,3.859137243585954,0.0,0.0,0.0,0.0
1955,0.826672762029765,3.8603195083461657,0.0,0.0,0.0,0.0
1956,0.82116940529723,3.861493929789829,0.0,0.0,0.0,0.0
1957,0.815664380129849,3.8626605055307786,0.0,0.0,0.0,0.0
1958,0.8101576977126166,3.8638192331987913,0.0,0.0,0.0,0.0
1959,0.8046493692338954,3.8649701104395877,0.0,0.0,0.0,0.0
1960,0.7991394058853922,3.8661131349148388,0.0,0.0,0.0,0.0
1961,0.7936278188621353,3.867248304302173,0.0,0.0,0.0,0.0
1962,0.7881146193624488,3.868375616295176,0.0,0.0,0.0,0.0
1963,0.782599818587943,3.8694950686033986,0.0,0.0,0.0,0.0
1964,0.7770834277434717,3.870606658952361,0.0,0.0,0.0,0.0
1965,0.7715654580371224,3.871710385083557,0.0,0.0,0.0,0.0
1966,0.766045920680191,3.872806244754459,0.0,0.0,0.0,0.0
1967,0.7605248268871544,3.8738942357385246,0.0,0.0,0.0,0.0
1968,0.7550021878756628,3.874974355825192,0.0,0.0,0.0,0.0
1969,0.749478014866495,3.876046602819899,0.0,0.0,0.0,0.0
1970,0.7439523190835509,3.877110974544075,0.0,0.0,0.0,0.0
1971,0.7384251117538233,3.878167468835153,0.0,0.0,0.0,0.0
1972,0.7328964041073769,3.8792160835465683,0.0,0.0,0.0,0.0
1973,0.7273662073773243,3.880256816547769,0.0,0.0,0.0,0.0
1974,0.7218345327998036,3.881289665724215,0.0,0.0,0.0,0.0
1975,0.7163013916139523,3.8823146289773858,0.0,0.0,0.0,0.0
1976,0.7107667950618982,3.8833317042247804,0.0,0.0,0.0,0.0
1977,0.7052307543887153,3.8843408893999283,0.0,0.0,0.0,0.0
1978,0.6996932808424153,3.885342182452387,0.0,0.0,0.0,0.0
1979,0.6941543856739216,3.8863355813477507,0.0,0.0,0.0,0.0
1980,0.6886140801370421,3.887321084067653,0.0,0.0,0.0,0.0
1981,0.6830723754884608,3.888298688609769,0.0,0.0,0.0,0.0
1982,0.677529282987694,3.8892683929878227,0.0,0.0,0.0,0.0
1983,0.6719848138970812,3.8902301952315885,0.0,0.0,0.0,0.0
1984,0.6664389794817591,3.8911840933868973,0.0,0.0,0.0,0.0
1985,0.660891791009638,3.8921300855156384,0.0,0.0,0.0,0.0
1986,0.6553432597513797,3.893068169695765,0.0,0.0,0.0,0.0
1987,0.6497933969803741,3.893998344021297,0.0,0.0,0.0,0.0
1988,0.644242213972713,3.894920606602327,0.0,0.0,0.0,0.0
1989,0.6386897220071809,3.8958349555650185,0.0,0.0,0.0,0.0
1990,0.6331359323652117,3.896741389051618,0.0,0.0,0.0,0.0
1991,0.6275808563308791,3.8976399052204527,0.0,0.0,0.0,0.0
1992,0.6220245051908706,3.898530502245936,0.0,0.0,0.0,0.0
1993,0.616466890234461,3.899413178318573,0.0,0.0,0.0,0.0
1994,0.6109080227535031,3.900287931644958,0.0,0.0,0.0,0.0
1995,0.6053479140423843,3.9011547604477874,0.0,0.0,0.0,0.0
1996,0.5997865753980175,3.9020136629658557,0.0,0.0,0.0,0.0
1997,0.5942240181198142,3.902864637454064,0.0,0.0,0.0,0.0
1998,0.5886602535096621,3.9037076821834185,0.0,0.0,0.0,0.0
1999,0.583095292871902,3.9045427954410394,0.0,0.0,0.0,0.0
2000,0.5775291475133049,3.9053699755301614,0.0,0.0,0.0,0.0
2001,0.5719618287430447,3.9061892207701367,0.0,0.0,0.0,0.0
2002,0.5663933478726907,3.9070005294964405,0.0,0.0,0.0,0.0
2003,0.5608237162161627,3.907803900060671,0.0,0.0,0.0,0.0
2004,0.5552529450897215,3.908599330830558,0.0,0.0,0.0,0.0
2005,0.5496810458119439,3.909386820189962,0.0,0.0,0.0,0.0
2006,0.5441080297036949,3.9101663665388786,0.0,0.0,0.0,0.0
2007,0.5385339080881191,3.910937968293442,0.0,0.0,0.0,0.0
2008,0.5329586922905969,3.911701623885927,0.0,0.0,0.0,0.0
2009,0.5273823936387355,3.9124573317647533,0.0,0.0,0.0,0.0
2010,0.5218050234623418,3.9132050903944915,0.0,0.0,0.0,0.0
2011,0.5162265930934001,3.9139448982558602,0.0,0.0,0.0,0.0
2012,0.5106471138660488,3.9146767538457334,0.0,0.0,0.0,0.0
2013,0.5050665971165572,3.9154006556771423,0.0,0.0,0.0,0.0
2014,0.49948505418330275,3.916116602279278,0.0,0.0,0.0,0.0
2015,0.4939024964067441,3.9168245921974965,0.0,0.0,0.0,0.0
2016,0.4883189351294127,3.917524623993316,0.0,0.0,0.0,0.0
2017,0.48273438169586824,3.9182166962444285,0.0,0.0,0.0,0.0
2018,0.47714884745268965,3.918900807544695,0.0,0.0,0.0,0.0
2019,0.4715623437484488,3.9195769565041534,0.0,0.0,0.0,0.0
2020,0.46597488193368375,3.9202451417490187,0.0,0.0,0.0,0.0
2021,0.4603864733608897,3.920905361921685,0.0,0.0,0.0,0.0
2022,0.4547971293844749,3.9215576156807304,0.0,0.0,0.0,0.0
2023,0.44920686136075183,3.9222019017009204,0.0,0.0,0.0,0.0
2024,0.4436156806479102,3.9228382186732076,0.0,0.0,0.0,0.0
2025,0.43802359860599416,3.923466565304737,0.0,0.0,0.0,0.0
2026,0.4324306265968793,3.9240869403188468,0.0,0.0,0.0,0.0
2027,0.42683677598424935,3.924699342455071,0.0,0.0,0.0,0.0
2028,0.4212420581335696,3.9253037704691454,0.0,0.0,0.0,0.0
2029,0.41564648441207785,3.9259002231330045,0.0,0.0,0.0,0.0
2030,0.4100500661887405,3.926488699234789,0.0,0.0,0.0,0.0
2031,0.4044528148342432,3.9270691975788448,0.0,0.0,0.0,0.0
2032,0.39885474172096436,3.9276417169857285,0.0,0.0,0.0,0.0
2033,0.3932558582229485,3.9282062562922055,0.0,0.0,0.0,0.0
2034,0.38765617571589717,3.9287628143512583,0.0,0.0,0.0,0.0
2035,0.38205570557712476,3.9293113900320833,0.0,0.0,0.0,0.0
2036,0.3764544591855496,3.9298519822200952,0.0,0.0,0.0,0.0
2037,0.3708524479216671,3.930384589816931,0.0,0.0,0.0,0.0
2038,0.36524968316752676,3.930909211740449,0.0,0.0,0.0,0.0
2039,0.359646176306709,3.931425846924734,0.0,0.0,0.0,0.0
2040,0.3540419387243019,3.931934494320097,0.0,0.0,0.0,0.0
2041,0.3484369818068749,3.932435152893079,0.0,0.0,0.0,0.0
2042,0.3428313169424695,3.932927821626452,0.0,0.0,0.0,0.0
2043,0.3372249555205548,3.933412499519222,0.0,0.0,0.0,0.0
2044,0.331617908932019,3.933889185586632,0.0,0.0,0.0,0.0
2045,0.32601018856914216,3.9343578788601583,0.0,0.0,0.0,0.0
2046,0.3204018058255699,3.9348185783875236,0.0,0.0,0.0,0.0
2047,0.31479277209630413,3.9352712832326846,0.0,0.0,0.0,0.0
2048,0.309183098777659,3.935715992475847,0.0,0.0,0.0,0.0
2049,0.30357279726725145,3.936152705213459,0.0,0.0,0.0,0.0
2050,0.2979618789639751,3.936581420558218,0.0,0.0,0.0,0.0
2051,0.2923503552679764,3.9370021376390674,0.0,0.0,0.0,0.0
2052,0.28673823758063205,3.937414855601204,0.0,0.0,0.0,0.0
2053,0.28112553730452555,3.937819573606076,0.0,0.0,0.0,0.0
2054,0.2755122658434242,3.938216290831386,0.0,0.0,0.0,0.0
2055,0.269898434602252,3.938605006471092,0.0,0.0,0.0,0.0
2056,0.26428405498708113,3.9389857197354097,0.0,0.0,0.0,0.0
2057,0.2586691384050873,3.939358429850814,0.0,0.0,0.0,0.0
2058,0.25305369626454083,3.9397231360600395,0.0,0.0,0.0,0.0
2059,0.24743773997477964,3.9400798376220845,0.0,0.0,0.0,0.0
2060,0.24182128094618302,3.9404285338122107,0.0,0.0,0.0,0.0
2061,0.23620433059016208,3.940769223921943,0.0,0.0,0.0,0.0
2062,0.23058690031911575,3.9411019072590756,0.0,0.0,0.0,0.0
2063,0.2249690015464215,3.9414265831476683,0.0,0.0,0.0,0.0
2064,0.21935064568640872,3.941743250928053,0.0,0.0,0.0,0.0
2065,0.21373184415433552,3.9420519099568296,0.0,0.0,0.0,0.0
2066,0.20811260836636547,3.942352559606871,0.0,0.0,0.0,0.0
2067,0.20249294973954454,3.9426451992673246,0.0,0.0,0.0,0.0
2068,0.19687287969177417,3.94292982834361,0.0,0.0,0.0,0.0
2069,0.19125240964180232,3.943206446257425,0.0,0.0,0.0,0.0
2070,0.1856315510091792,3.9434750524467415,0.0,0.0,0.0,0.0
2071,0.1800103152142479,3.9437356463658126,0.0,0.0,0.0,0.0
2072,0.17438871367811798,3.9439882274851676,0.0,0.0,0.0,0.0
2073,0.16876675782263847,3.944232795291619,0.0,0.0,0.0,0.0
2074,0.16314445907038885,3.9444693492882577,0.0,0.0,0.0,0.0
2075,0.15752182884463484,3.9446978889944595,0.0,0.0,0.0,0.0
2076,0.15189887856931905,3.9449184139458815,0.0,0.0,0.0,0.0
2077,0.14627561966903443,3.9451309236944656,0.0,0.0,0.0,0.0
2078,0.14065206356900095,3.9453354178084385,0.0,0.0,0.0,0.0
2079,0.13502822169504247,3.9455318958723145,0.0,0.0,0.0,0.0
2080,0.1294041054735634,3.945720357486892,0.0,0.0,0.0,0.0
2081,0.12377972633152216,3.945900802269261,0.0,0.0,0.0,0.0
2082,0.11815509569642178,3.9460732298527956,0.0,0.0,0.0,0.0
2083,0.1125302249962658,3.9462376398871615,0.0,0.0,0.0,0.0
2084,0.10690512565954904,3.946394032038314,0.0,0.0,0.0,0.0
2085,0.10127980911523085,3.946542405988499,0.0,0.0,0.0,0.0
2086,0.09565428679270838,3.9466827614362523,0.0,0.0,0.0,0.0
2087,0.0900285701218074,3.946815098096404,0.0,0.0,0.0,0.0
2088,0.08440267053273803,3.946939415700075,0.0,0.0,0.0,0.0
2089,0.07877659945608553,3.9470557139946782,0.0,0.0,0.0,0.0
2090,0.07315036832278365,3.9471639927439224,0.0,0.0,0.0,0.0
2091,0.06752398856409127,3.9472642517278094,0.0,0.0,0.0,0.0
2092,0.06189747161156926,3.9473564907426333,0.0,0.0,0.0,0.0
2093,0.05627082889705725,3.947440709600987,0.0,0.0,0.0,0.0
2094,0.05064407185264689,3.9475169081317545,0.0,0.0,0.0,0.0
2095,0.04501721191067262,3.9475850861801187,0.0,0.0,0.0,0.0
2096,0.03939026050366745,3.9476452436075555,0.0,0.0,0.0,0.0
2097,0.0337632290643537,3.947697380291839,0.0,0.0,0.0,0.0
2098,0.028136129025616352,3.947741496127039,0.0,0.0,0.0,0.0
2099,0.022508971820476203,3.9477775910235224,0.0,0.0,0.0,0.0
2100,0.01688176888208075,3.947805664907951,0.0,0.0,0.0,0.0
2101,0.011254531643659886,3.947825717723286,0.0,0.0,0.0,0.0
2102,0.005627271538516694,3.947837749428784,0.0,0.0,0.0,0.0
2103,7.25206766238638e-16,3.94784176,0.0,0.0,0.0,0.0
2104,-0.005627271538515243,3.947837749428784,0.0,0.0,0.0,0.0
2105,-0.011254531643658434,3.947825717723286,0.0,0.0,0.0,0.0
2106,-0.0168817688820793,3.947805664907951,0.0,0.0,0.0,0.0
2107,-0.022508971820474753,3.9477775910235224,0.0,0.0,0.0,0.0
2108,-0.028136129025614902,3.947741496127039,0.0,0.0,0.0,0.0
2109,-0.03376322906435225,3.9476973802918387,0.0,0.0,0.0,0.0
2110,-0.039390260503665994,3.9476452436075555,0.0,0.0,0.0,0.0
2111,-0.04501721191067117,3.9475850861801183,0.0,0.0,0.0,0.0
2112,-0.05064407185264544,3.9475169081317545,0.0,0.0,0.0,0.0
2113,-0.0562708288970558,3.947440709600987,0.0,0.0,0.0,0.0
2114,-0.06189747161156781,3.9473564907426333,0.0,0.0,0.0,0.0
2115,-0.06752398856408981,3.9472642517278094,0.0,0.0,0.0,0.0
2116,-0.0731503683227822,3.9471639927439224,0.0,0.0,0.0,0.0
2117,-0.07877659945608409,3.9470557139946782,0.0,0.0,0.0,0.0
2118,-0.08440267053273658,3.946939415700075,0.0,0.0,0.0,0.0
2119,-0.09002857012180594,3.946815098096404,0.0,0.0,0.0,0.0
2120,-0.09565428679270693,3.9466827614362523,0.0,0.0,0.0,0.0
2121,-0.10127980911522941,3.946542405988499,0.0,0.0,0.0,0.0
2122,-0.10690512565954759,3.946394032038314,0.0,0.0,0.0,0.0
2123,-0.11253022499626435,3.9462376398871615,0.0,0.0,0.0,0.0
2124,-0.11815509569642033,3.9460732298527956,0.0,0.0,0.0,0.0
2125,-0.12377972633152073,3.945900802269261,0.0,0.0,0.0,0.0
2126,-0.129404105473562,3.9457203574868926,0.0,0.0,0.0,0.0
2127,-0.13502822169504106,3.945531895872315,0.0,0.0,0.0,0.0
2128,-0.14065206356899954,3.9453354178084385,0.0,0.0,0.0,0.0
2129,-0.14627561966903302,3.9451309236944656,0.0,0.0,0.0,0.0
2130,-0.1518988785693176,3.944918413945881,0.0,0.0,0.0,0.0
2131,-0.1575218288446334,3.944697888994459,0.0,0.0,0.0,0.0
2132,-0.1631444590703874,3.944469349288258,0.0,0.0,0.0,0.0
2133,-0.16876675782263703,3.944232795291619,0.0,0.0,0.0,0.0
2134,-0.17438871367811654,3.9439882274851676,0.0,0.0,0.0,0.0
2135,-0.18001031521424649,3.9437356463658126,0.0,0.0,0.0,0.0
2136,-0.18563155100917775,3.9434750524467415,0.0,0.0,0.0,0.0
2137,-0.1912524096418009,3.943206446257425,0.0,0.0,0.0,0.0
2138,-0.19687287969177272,3.94292982834361,0.0,0.0,0.0,0.0
2139,-0.2024929497395431,3.9426451992673246,0.0,0.0,0.0,0.0
2140,-0.20811260836636405,3.9423525596068716,0.0,0.0,0.0,0.0
2141,-0.2137318441543341,3.9420519099568296,0.0,0.0,0.0,0.0
2142,-0.2193506456864073,3.941743250928053,0.0,0.0,0.0,0.0
2143,-0.22496900154642008,3.941426583147669,0.0,0.0,0.0,0.0
2144,-0.23058690031911433,3.941101907259075,0.0,0.0,0.0,0.0
2145,-0.23620433059016066,3.9407692239219436,0.0,0.0,0.0,0.0
2146,-0.2418212809461816,3.940428533812211,0.0,0.0,0.0,0.0
2147,-0.24743773997477825,3.940079837622085,0.0,0.0,0.0,0.0
2148,-0.2530536962645394,3.939723136060039,0.0,0.0,0.0,0.0
2149,-0.25866913840508593,3.939358429850814,0.0,0.0,0.0,0.0
2150,-0.2642840549870797,3.93898571973541,0.0,0.0,0.0,0.0
2151,-0.26989843460225055,3.9386050064710925,0.0,0.0,0.0,0.0
2152,-0.27551226584342275,3.9382162908313862,0.0,0.0,0.0,0.0
2153,-0.28112553730452416,3.937819573606076,0.0,0.0,0.0,0.0
2154,-0.2867382375806306,3.937414855601204,0.0,0.0,0.0,0.0
2155,-0.292350355267975,3.9370021376390674,0.0,0.0,0.0,0.0
2156,-0.29796187896397364,3.936581420558218,0.0,0.0,0.0,0.0
2157,-0.30357279726725,3.936152705213459,0.0,0.0,0.0,0.0
2158,-0.30918309877765754,3.935715992475847,0.0,0.0,0.0,0.0
2159,-0.31479277209630274,3.9352712832326846,0.0,0.0,0.0,0.0
2160,-0.32040180582556843,3.934818578387524,0.0,0.0,0.0,0.0
2161,-0.3260101885691407,3.9343578788601588,0.0,0.0,0.0,0.0
2162,-0.33161790893201754,3.9338891855866316,0.0,0.0,0.0,0.0
2163,-0.33722495552055337,3.9334124995192226,0.0,0.0,0.0,0.0
2164,-0.34283131694246805,3.932927821626452,0.0,0.0,0.0,0.0
2165,-0.3484369818068735,3.9324351528930794,0.0,0.0,0.0,0.0
2166,-0.35404193872430045,3.931934494320097,0.0,0.0,0.0,0.0
2167,-0.35964617630670753,3.931425846924734,0.0,0.0,0.0,0.0
2168,-0.3652496831675254,3.930909211740449,0.0,0.0,0.0,0.0
2169,-0.3708524479216657,3.9303845898169314,0.0,0.0,0.0,0.0
2170,-0.3764544591855482,3.9298519822200957,0.0,0.0,0.0,0.0
2171,-0.3820557055771234,3.9293113900320833,0.0,0.0,0.0,0.0
2172,-0.3876561757158957,3.9287628143512587,0.0,0.0,0.0,0.0
2173,-0.3932558582229471,3.9282062562922064,0.0,0.0,0.0,0.0
2174,-0.39885474172096297,3.9276417169857285,0.0,0.0,0.0,0.0
2175,-0.40445281483424184,3.927069197578845,0.0,0.0,0.0,0.0
2176,-0.4100500661887391,3.926488699234789,0.0,0.0,0.0,0.0
2177,-0.4156464844120764,3.925900223133005,0.0,0.0,0.0,0.0
2178,-0.42124205813356813,3.925303770469146,0.0,0.0,0.0,0.0
2179,-0.4268367759842479,3.924699342455071,0.0,0.0,0.0,0.0
2180,-0.43243062659687787,3.9240869403188468,0.0,0.0,0.0,0.0
2181,-0.4380235986059927,3.9234665653047376,0.0,0.0,0.0,0.0
2182,-0.44361568064790874,3.922838218673208,0.0,0.0,0.0,0.0
2183,-0.4492068613607504,3.922201901700921,0.0,0.0,0.0,0.0
2184,-0.4547971293844735,3.921557615680731,0.0,0.0,0.0,0.0
2185,-0.4603864733608883,3.920905361921685,0.0,0.0,0.0,0.0
2186,-0.4659748819336823,3.9202451417490187,0.0,0.0,0.0,0.0
2187,-0.47156234374844735,3.919576956504154,0.0,0.0,0.0,0.0
2188,-0.4771488474526882,3.9189008075446954,0.0,0.0,0.0,0.0
2189,-0.4827343816958668,3.9182166962444285,0.0,0.0,0.0,0.0
2190,-0.48831893512941127,3.9175246239933164,0.0,0.0,0.0,0.0
2191,-0.4939024964067426,3.9168245921974965,0.0,0.0,0.0,0.0
2192,-0.4994850541833012,3.9161166022792786,0.0,0.0,0.0,0.0
2193,-0.5050665971165557,3.9154006556771423,0.0,0.0,0.0,0.0
2194,-0.5106471138660473,3.914676753845734,0.0,0.0,0.0,0.0
2195,-0.5162265930933987,3.9139448982558607,0.0,0.0,0.0,0.0
2196,-0.5218050234623403,3.9132050903944915,0.0,0.0,0.0,0.0
2197,-0.527382393638734,3.9124573317647533,0.0,0.0,0.0,0.0
2198,-0.5329586922905953,3.9117016238859263,0.0,0.0,0.0,0.0
2199,-0.5385339080881175,3.910937968293442,0.0,0.0,0.0,0.0
2200,-0.5441080297036933,3.9101663665388795,0.0,0.0,0.0,0.0
2201,-0.5496810458119423,3.909386820189962,0.0,0.0,0.0,0.0
2202,-0.55525294508972,3.9085993308305587,0.0,0.0,0.0,0.0
2203,-0.5608237162161611,3.907803900060671,0.0,0.0,0.0,0.0
2204,-0.5663933478726892,3.90700052949644,0.0,0.0,0.0,0.0
2205,-0.5719618287430431,3.906189220770137,0.0,0.0,0.0,0.0
2206,-0.5775291475133033,3.9053699755301614,0.0,0.0,0.0,0.0
2207,-0.5830952928719004,3.9045427954410394,0.0,0.0,0.0,0.0
2208,-0.5886602535096606,3.903707682183419,0.0,0.0,0.0,0.0
2209,-0.5942240181198126,3.902864637454064,0.0,0.0,0.0,0.0
2210,-0.5997865753980159,3.902013662965856,0.0,0.0,0.0,0.0
2211,-0.6053479140423829,3.901154760447787,0.0,0.0,0.0,0.0
2212,-0.6109080227535015,3.900287931644958,0.0,0.0,0.0,0.0
2213,-0.6164668902344594,3.899413178318573,0.0,0.0,0.0,0.0
2214,-0.6220245051908692,3.8985305022459364,0.0,0.0,0.0,0.0
2215,-0.6275808563308776,3.8976399052204527,0.0,0.0,0.0,0.0
2216,-0.6331359323652102,3.8967413890516185,0.0,0.0,0.0,0.0
2217,-0.6386897220071793,3.895834955565019,0.0,0.0,0.0,0.0
2218,-0.6442422139727114,3.894920606602327,0.0,0.0,0.0,0.0
2219,-0.6497933969803725,3.8939983440212975,0.0,0.0,0.0,0.0
2220,-0.6553432597513782,3.8930681696957654,0.0,0.0,0.0,0.0
2221,-0.6608917910096365,3.892130085515639,0.0,0.0,0.0,0.0
2222,-0.6664389794817576,3.8911840933868977,0.0,0.0,0.0,0.0
2223,-0.6719848138970798,3.8902301952315885,0.0,0.0,0.0,0.0
2224,-0.6775292829876924,3.889268392987823,0.0,0.0,0.0,0.0
2225,-0.6830723754884592,3.8882986886097695,0.0,0.0,0.0,0.0
2226,-0.6886140801370406,3.8873210840676538,0.0,0.0,0.0,0.0
2227,-0.6941543856739201,3.886335581347751,0.0,0.0,0.0,0.0
2228,-0.6996932808424139,3.885342182452387,0.0,0.0,0.0,0.0
2229,-0.7052307543887137,3.8843408893999283,0.0,0.0,0.0,0.0
2230,-0.7107667950618967,3.883331704224781,0.0,0.0,0.0,0.0
2231,-0.7163013916139508,3.882314628977386,0.0,0.0,0.0,0.0
2232,-0.721834532799802,3.8812896657242155,0.0,0.0,0.0,0.0
2233,-0.7273662073773227,3.8802568165477695,0.0,0.0,0.0,0.0
2234,-0.7328964041073753,3.8792160835465688,0.0,0.0,0.0,0.0
2235,-0.7384251117538218,3.878167468835153,0.0,0.0,0.0,0.0
2236,-0.7439523190835493,3.8771109745440753,0.0,0.0,0.0,0.0
2237,-0.7494780148664936,3.876046602819899,0.0,0.0,0.0,0.0
2238,-0.7550021878756612,3.8749743558251923,0.0,0.0,0.0,0.0
2239,-0.7605248268871528,3.8738942357385246,0.0,0.0,0.0,0.0
2240,-0.7660459206801894,3.8728062447544596,0.0,0.0,0.0,0.0
2241,-0.771565458037121,3.8717103850835577,0.0,0.0,0.0,0.0
2242,-0.7770834277434702,3.870606658952361,0.0,0.0,0.0,0.0
2243,-0.7825998185879416,3.8694950686033986,0.0,0.0,0.0,0.0
2244,-0.7881146193624473,3.8683756162951766,0.0,0.0,0.0,0.0
2245,-0.7936278188621337,3.8672483043021733,0.0,0.0,0.0,0.0
2246,-0.7991394058853907,3.866113134914839,0.0,0.0,0.0,0.0
2247,-0.8046493692338939,3.8649701104395877,0.0,0.0,0.0,0.0
2248,-0.810157697712615,3.8638192331987917,0.0,0.0,0.0,0.0
2249,-0.8156643801298474,3.862660505530779,0.0,0.0,0.0,0.0
2250,-0.8211694052972286,3.861493929789829,0.0,0.0,0.0,0.0
2251,-0.8266727620297635,3.860319508346166,0.0,0.0,0.0,0.0
2252,-0.8321744391458469,3.8591372435859546,0.0,0.0,0.0,0.0
2253,-0.837674425467286,3.8579471379112955,0.0,0.0,0.0,0.0
2254,-0.843172709819327,3.85674919374022,0.0,0.0,0.0,0.0
2255,-0.8486692810306637,3.855543413506687,0.0,0.0,0.0,0.0
2256,-0.8541641279334811,3.8543297996605763,0.0,0.0,0.0,0.0
2257,-0.8596572393634637,3.853108354667682,0.0,0.0,0.0,0.0
2258,-0.8651486041598229,3.8518790810097108,0.0,0.0,0.0,0.0
2259,-0.8706382111653213,3.850641981184274,0.0,0.0,0.0,0.0
2260,-0.8761260492262836,3.8493970577048877,0.0,0.0,0.0,0.0
2261,-0.8816121071926382,3.84814431310096,0.0,0.0,0.0,0.0
2262,-0.8870963739179272,3.8468837499177915,0.0,0.0,0.0,0.0
2263,-0.8925788382593322,3.8456153707165677,0.0,0.0,0.0,0.0
2264,-0.8980594890776964,3.844339178074356,0.0,0.0,0.0,0.0
2265,-0.9035383152375481,3.843055174584096,0.0,0.0,0.0,0.0
2266,-0.9090153056071226,3.841763362854601,0.0,0.0,0.0,0.0
2267,-0.9144904490583888,3.8404637455105455,0.0,0.0,0.0,0.0
2268,-0.9199637344670578,3.8391563251924667,0.0,0.0,0.0,0.0
2269,-0.9254351507126259,3.837841104556754,0.0,0.0,0.0,0.0
2270,-0.9309046866783839,3.8365180862756434,0.0,0.0,0.0,0.0
2271,-0.936372331251443,3.8351872730372167,0.0,0.0,0.0,0.0
2272,-0.9418380733227604,3.8338486675453916,0.0,0.0,0.0,0.0
2273,-0.9473019017871487,3.8325022725199203,0.0,0.0,0.0,0.0
2274,-0.9527638055433189,3.83114809069638,0.0,0.0,0.0,0.0
2275,-0.9582237734938889,3.829786124826168,0.0,0.0,0.0,0.0
2276,-0.9636817945454098,3.828416377676499,0.0,0.0,0.0,0.0
2277,-0.9691378576083887,3.8270388520303955,0.0,0.0,0.0,0.0
2278,-0.9745919515973103,3.825653550686686,0.0,0.0,0.0,0.0
2279,-0.9800440654306606,3.8242604764599974,0.0,0.0,0.0,0.0
2280,-0.9854941880309518,3.822859632180747,0.0,0.0,0.0,0.0
2281,-0.990942308324732,3.821451020695144,0.0,0.0,0.0,0.0
2282,-0.9963884152426274,3.8200346448651734,0.0,0.0,0.0,0.0
2283,-1.0018324977193518,3.8186105075685983,0.0,0.0,0.0,0.0
2284,-1.0072745446937321,3.817178611698952,0.0,0.0,0.0,0.0
2285,-1.0127145451087345,3.8157389601655294,0.0,0.0,0.0,0.0
2286,-1.018152487911473,3.8142915558933854,0.0,0.0,0.0,0.0
